# Wavelength  (nm), Reflectance (%)
250.000000, 59.268227
251.000000, 59.484671
252.000000, 60.112634
253.000000, 60.291216
254.000000, 60.404617
255.000000, 60.603389
256.000000, 60.817043
257.000000, 61.399835
258.000000, 60.893728
259.000000, 60.986898
260.000000, 61.061603
261.000000, 61.016543
262.000000, 60.700309
263.000000, 60.260343
264.000000, 60.202431
265.000000, 59.321132
266.000000, 58.760571
267.000000, 57.554547
268.000000, 56.125625
269.000000, 53.634905
270.000000, 51.030015
271.000000, 48.369685
272.000000, 44.625661
273.000000, 40.420759
274.000000, 37.091644
275.000000, 34.348875
276.000000, 33.203050
277.000000, 34.419165
278.000000, 36.651638
279.000000, 40.969539
280.000000, 46.853435
281.000000, 52.374806
282.000000, 57.443787
283.000000, 60.433302
284.000000, 62.577964
285.000000, 63.379210
286.000000, 62.847419
287.000000, 61.250156
288.000000, 57.882387
289.000000, 53.263084
290.000000, 47.636637
291.000000, 40.847634
292.000000, 35.605481
293.000000, 33.464570
294.000000, 34.433447
295.000000, 39.393689
296.000000, 45.880581
297.000000, 51.993543
298.000000, 57.738955
299.000000, 63.669067
300.000000, 69.827529
301.000000, 77.225673
302.000000, 83.993760
303.000000, 88.671488
304.000000, 92.658827
305.000000, 94.569235
306.000000, 95.982806
307.000000, 96.314720
308.000000, 96.353038
309.000000, 95.732187
310.000000, 95.362469
311.000000, 94.166018
312.000000, 93.983661
313.000000, 93.884697
314.000000, 93.610282
315.000000, 93.730580
316.000000, 92.240053
317.000000, 90.337027
318.000000, 87.684768
319.000000, 84.534704
320.000000, 83.299748
321.000000, 83.630794
322.000000, 85.273192
323.000000, 87.452703
324.000000, 90.005084
325.000000, 92.032086
326.000000, 92.857012
327.000000, 93.095479
328.000000, 92.303203
329.000000, 91.908247
330.000000, 91.493720
331.000000, 91.523592
332.000000, 91.632563
333.000000, 92.127467
334.000000, 93.168036
335.000000, 93.492743
336.000000, 94.856386
337.000000, 95.487033
338.000000, 96.212879
339.000000, 96.519070
340.000000, 96.927471
341.000000, 97.430146
342.000000, 97.575332
343.000000, 98.054113
344.000000, 98.440310
345.000000, 98.563181
346.000000, 98.838222
347.000000, 99.305899
348.000000, 99.468560
349.000000, 99.640390
350.000000, 99.537287
351.000000, 99.544519
352.000000, 99.441998
353.000000, 99.704046
354.000000, 99.790614
355.000000, 99.614209
356.000000, 99.631150
357.000000, 99.611931
358.000000, 99.710811
359.000000, 99.713124
360.000000, 99.730896
361.000000, 99.586985
362.000000, 99.470122
363.000000, 99.530159
364.000000, 99.517786
365.000000, 99.587485
366.000000, 99.496282
367.000000, 99.390023
368.000000, 99.673730
369.000000, 99.454643
370.000000, 99.522721
371.000000, 99.584207
372.000000, 99.471493
373.000000, 99.454968
374.000000, 99.411815
375.000000, 99.333611
376.000000, 99.193789
377.000000, 99.053842
378.000000, 99.123977
379.000000, 99.218835
380.000000, 99.094734
381.000000, 99.263464
382.000000, 99.275909
383.000000, 99.372800
384.000000, 99.476709
385.000000, 99.507493
386.000000, 99.535187
387.000000, 99.564086
388.000000, 99.529125
389.000000, 99.537152
390.000000, 99.493769
391.000000, 99.434583
392.000000, 99.444512
393.000000, 99.382640
394.000000, 99.355723
395.000000, 99.337591
396.000000, 99.350580
397.000000, 99.310642
398.000000, 99.278454
399.000000, 99.357157
400.000000, 99.411281
401.000000, 99.399482
402.000000, 99.472909
403.000000, 99.448458
404.000000, 99.495737
405.000000, 99.496435
406.000000, 99.519237
407.000000, 99.439091
408.000000, 99.411852
409.000000, 99.364515
410.000000, 99.251690
411.000000, 99.249981
412.000000, 99.275353
413.000000, 99.295396
414.000000, 99.336501
415.000000, 99.393937
416.000000, 99.401656
417.000000, 99.384908
418.000000, 99.338418
419.000000, 99.252904
420.000000, 99.166172
421.000000, 99.029922
422.000000, 99.053370
423.000000, 99.058888
424.000000, 99.147669
425.000000, 99.234458
426.000000, 99.304292
427.000000, 99.290793
428.000000, 99.292301
429.000000, 99.247553
430.000000, 99.222588
431.000000, 99.189963
432.000000, 99.231612
433.000000, 99.280023
434.000000, 99.330380
435.000000, 99.402724
436.000000, 99.450183
437.000000, 99.465917
438.000000, 99.441551
439.000000, 99.405897
440.000000, 99.376672
441.000000, 99.356347
442.000000, 99.339150
443.000000, 99.349173
444.000000, 99.376828
445.000000, 99.416160
446.000000, 99.489963
447.000000, 99.536809
448.000000, 99.596366
449.000000, 99.621182
450.000000, 99.647112
451.000000, 99.672094
452.000000, 99.648407
453.000000, 99.625589
454.000000, 99.616560
455.000000, 99.628881
456.000000, 99.602368
457.000000, 99.605265
458.000000, 99.566870
459.000000, 99.513728
460.000000, 99.466234
461.000000, 99.412446
462.000000, 99.330594
463.000000, 99.281219
464.000000, 99.250947
465.000000, 99.214292
466.000000, 99.178331
467.000000, 99.202995
468.000000, 99.203306
469.000000, 99.229761
470.000000, 99.225959
471.000000, 99.229857
472.000000, 99.194776
473.000000, 99.155471
474.000000, 99.153073
475.000000, 99.166427
476.000000, 99.146561
477.000000, 99.198839
478.000000, 99.241891
479.000000, 99.303354
480.000000, 99.356879
481.000000, 99.411780
482.000000, 99.440373
483.000000, 99.485360
484.000000, 99.522973
485.000000, 99.542492
486.000000, 99.544029
487.000000, 99.552456
488.000000, 99.535341
489.000000, 99.515679
490.000000, 99.511252
491.000000, 99.509262
492.000000, 99.494686
493.000000, 99.510029
494.000000, 99.506321
495.000000, 99.517201
496.000000, 99.501376
497.000000, 99.470144
498.000000, 99.425721
499.000000, 99.374764
500.000000, 99.313638
501.000000, 99.280171
502.000000, 99.267811
503.000000, 99.282438
504.000000, 99.328793
505.000000, 99.411884
506.000000, 99.477295
507.000000, 99.557162
508.000000, 99.596275
509.000000, 99.650226
510.000000, 99.670402
511.000000, 99.688541
512.000000, 99.692540
513.000000, 99.687140
514.000000, 99.678511
515.000000, 99.652315
516.000000, 99.602850
517.000000, 99.590228
518.000000, 99.548625
519.000000, 99.535973
520.000000, 99.488025
521.000000, 99.466100
522.000000, 99.463351
523.000000, 99.437345
524.000000, 99.434427
525.000000, 99.421746
526.000000, 99.403142
527.000000, 99.366176
528.000000, 99.309354
529.000000, 99.257607
530.000000, 99.225915
531.000000, 99.204815
532.000000, 99.201615
533.000000, 99.223789
534.000000, 99.263104
535.000000, 99.312767
536.000000, 99.387483
537.000000, 99.419758
538.000000, 99.448297
539.000000, 99.449521
540.000000, 99.452545
541.000000, 99.465721
542.000000, 99.492587
543.000000, 99.504358
544.000000, 99.546593
545.000000, 99.582936
546.000000, 99.611119
547.000000, 99.648867
548.000000, 99.634471
549.000000, 99.648014
550.000000, 99.629130
551.000000, 99.579497
552.000000, 99.533087
553.000000, 99.460587
554.000000, 99.390662
555.000000, 99.311560
556.000000, 99.252580
557.000000, 99.202709
558.000000, 99.179993
559.000000, 99.201019
560.000000, 99.212065
561.000000, 99.235519
562.000000, 99.279653
563.000000, 99.321940
564.000000, 99.359460
565.000000, 99.370566
566.000000, 99.370628
567.000000, 99.359153
568.000000, 99.342191
569.000000, 99.329371
570.000000, 99.319524
571.000000, 99.335965
572.000000, 99.347622
573.000000, 99.390248
574.000000, 99.446969
575.000000, 99.491394
576.000000, 99.540799
577.000000, 99.589627
578.000000, 99.612321
579.000000, 99.658362
580.000000, 99.663741
581.000000, 99.673054
582.000000, 99.688883
583.000000, 99.669423
584.000000, 99.672826
585.000000, 99.660105
586.000000, 99.652607
587.000000, 99.635073
588.000000, 99.620111
589.000000, 99.608349
590.000000, 99.592841
591.000000, 99.594798
592.000000, 99.584702
593.000000, 99.571539
594.000000, 99.563279
595.000000, 99.555405
596.000000, 99.553482
597.000000, 99.560580
598.000000, 99.552806
599.000000, 99.558349
600.000000, 99.544277
601.000000, 99.549568
602.000000, 99.536203
603.000000, 99.526333
604.000000, 99.537290
605.000000, 99.520068
606.000000, 99.521040
607.000000, 99.531654
608.000000, 99.551478
609.000000, 99.566236
610.000000, 99.564719
611.000000, 99.557540
612.000000, 99.543613
613.000000, 99.507413
614.000000, 99.510456
615.000000, 99.485189
616.000000, 99.470122
617.000000, 99.477674
618.000000, 99.492977
619.000000, 99.505826
620.000000, 99.544881
621.000000, 99.547500
622.000000, 99.562041
623.000000, 99.556825
624.000000, 99.538118
625.000000, 99.522261
626.000000, 99.506282
627.000000, 99.508994
628.000000, 99.517279
629.000000, 99.517513
630.000000, 99.548424
631.000000, 99.558610
632.000000, 99.573363
633.000000, 99.600257
634.000000, 99.597549
635.000000, 99.590179
636.000000, 99.563995
637.000000, 99.564051
638.000000, 99.530341
639.000000, 99.525760
640.000000, 99.524954
641.000000, 99.522270
642.000000, 99.525594
643.000000, 99.567779
644.000000, 99.585493
645.000000, 99.591634
646.000000, 99.586180
647.000000, 99.568098
648.000000, 99.534619
649.000000, 99.509647
650.000000, 99.501663
651.000000, 99.482889
652.000000, 99.493718
653.000000, 99.509162
654.000000, 99.503166
655.000000, 99.491251
656.000000, 99.508904
657.000000, 99.517773
658.000000, 99.523088
659.000000, 99.540192
660.000000, 99.544589
661.000000, 99.545656
662.000000, 99.546109
663.000000, 99.558127
664.000000, 99.565794
665.000000, 99.596505
666.000000, 99.623706
667.000000, 99.629512
668.000000, 99.622185
669.000000, 99.638577
670.000000, 99.621580
671.000000, 99.611615
672.000000, 99.629900
673.000000, 99.625211
674.000000, 99.607064
675.000000, 99.556513
676.000000, 99.485687
677.000000, 99.390762
678.000000, 99.291979
679.000000, 99.220248
680.000000, 99.174884
681.000000, 99.139636
682.000000, 99.093103
683.000000, 99.036703
684.000000, 98.963411
685.000000, 98.829945
686.000000, 98.743107
687.000000, 98.663881
688.000000, 98.655364
689.000000, 98.689872
690.000000, 98.734138
691.000000, 98.818869
692.000000, 98.869803
693.000000, 98.928568
694.000000, 98.989130
695.000000, 99.031721
696.000000, 99.108536
697.000000, 99.165933
698.000000, 99.254222
699.000000, 99.335553
700.000000, 99.429947
701.000000, 99.502736
702.000000, 99.560923
703.000000, 99.622035
704.000000, 99.624961
705.000000, 99.644038
706.000000, 99.624495
707.000000, 99.603480
708.000000, 99.587844
709.000000, 99.536240
710.000000, 99.455688
711.000000, 99.385050
712.000000, 99.230451
713.000000, 99.001905
714.000000, 98.628000
715.000000, 98.068801
716.000000, 97.206245
717.000000, 95.976233
718.000000, 94.342183
719.000000, 92.284210
720.000000, 88.905741
721.000000, 86.227777
722.000000, 83.578377
723.000000, 80.761457
724.000000, 77.845489
725.000000, 75.044712
726.000000, 72.081414
727.000000, 69.062783
728.000000, 66.334165
729.000000, 63.667373
730.000000, 61.214887
731.000000, 59.123672
732.000000, 57.290413
733.000000, 55.741175
734.000000, 54.470184
735.000000, 53.282631
736.000000, 51.920257
737.000000, 50.191254
738.000000, 47.949649
739.000000, 44.848145
740.000000, 41.133991
741.000000, 37.146448
742.000000, 32.735676
743.000000, 28.234513
744.000000, 24.003715
745.000000, 19.663717
746.000000, 15.512901
747.000000, 12.074334
748.000000, 9.128506
749.000000, 6.885015
750.000000, 5.425538
751.000000, 4.493040
752.000000, 3.930577
753.000000, 3.586623
754.000000, 3.345339
755.000000, 3.121952
756.000000, 2.977507
757.000000, 2.887783
758.000000, 2.824368
759.000000, 2.783706
760.000000, 2.759700
761.000000, 2.724437
762.000000, 2.716086
763.000000, 2.728314
764.000000, 2.762754
765.000000, 2.834328
766.000000, 2.894519
767.000000, 2.976573
768.000000, 3.044965
769.000000, 3.098648
770.000000, 3.149123
771.000000, 3.167916
772.000000, 3.184476
773.000000, 3.178085
774.000000, 3.166225
775.000000, 3.134740
776.000000, 3.069455
777.000000, 3.013930
778.000000, 2.953829
779.000000, 2.916955
780.000000, 2.903204
781.000000, 2.878085
782.000000, 2.879283
783.000000, 2.905257
784.000000, 2.946070
785.000000, 2.978297
786.000000, 3.006765
787.000000, 3.049138
788.000000, 3.051875
789.000000, 3.042130
790.000000, 3.023181
791.000000, 2.997547
792.000000, 2.986442
793.000000, 2.966488
794.000000, 2.972190
795.000000, 2.977151
796.000000, 3.004953
797.000000, 3.019570
798.000000, 3.041504
799.000000, 3.063807
800.000000, 3.036459
801.000000, 3.039955
802.000000, 3.003995
803.000000, 2.966758
804.000000, 2.935874
805.000000, 2.886477
806.000000, 2.853352
807.000000, 2.853033
808.000000, 2.868549
809.000000, 2.886917
810.000000, 2.898691
811.000000, 2.918286
812.000000, 2.943297
813.000000, 2.951840
814.000000, 2.921272
815.000000, 2.899261
816.000000, 2.826038
817.000000, 2.763729
818.000000, 2.713388
819.000000, 2.644419
820.000000, 2.606538
821.000000, 2.578805
822.000000, 2.556739
823.000000, 2.578006
824.000000, 2.606088
825.000000, 2.643920
826.000000, 2.689274
827.000000, 2.735131
828.000000, 2.747870
829.000000, 2.767082
830.000000, 2.760338
831.000000, 2.743946
832.000000, 2.719591
833.000000, 2.685952
834.000000, 2.659726
835.000000, 2.654397
836.000000, 2.650021
837.000000, 2.672904
838.000000, 2.711821
839.000000, 2.777552
840.000000, 2.853488
841.000000, 2.932653
842.000000, 3.031674
843.000000, 3.126132
844.000000, 3.201027
845.000000, 3.266021
846.000000, 3.311843
847.000000, 3.344058
848.000000, 3.355358
849.000000, 3.342848
850.000000, 3.324428
851.000000, 3.281848
852.000000, 3.227506
853.000000, 3.164011
854.000000, 3.100005
855.000000, 3.029333
856.000000, 2.955604
857.000000, 2.880049
858.000000, 2.810719
859.000000, 2.747325
860.000000, 2.690071
861.000000, 2.651770
862.000000, 2.617848
863.000000, 2.600823
864.000000, 2.607760
865.000000, 2.621811
866.000000, 2.653617
867.000000, 2.702936
868.000000, 2.764709
869.000000, 2.831183
870.000000, 2.906513
871.000000, 2.982741
872.000000, 3.050588
873.000000, 3.115569
874.000000, 3.166720
875.000000, 3.209832
876.000000, 3.233788
877.000000, 3.256406
878.000000, 3.267331
879.000000, 3.271390
880.000000, 3.273143
881.000000, 3.270708
882.000000, 3.270401
883.000000, 3.273781
884.000000, 3.282912
885.000000, 3.295293
886.000000, 3.312046
887.000000, 3.330381
888.000000, 3.344914
889.000000, 3.361157
890.000000, 3.372842
891.000000, 3.378268
892.000000, 3.376760
893.000000, 3.366923
894.000000, 3.354805
895.000000, 3.340784
896.000000, 3.321925
897.000000, 3.304521
898.000000, 3.290863
899.000000, 3.279624
900.000000, 3.274695
901.000000, 3.277794
902.000000, 3.287370
903.000000, 3.301928
904.000000, 3.317149
905.000000, 3.334042
906.000000, 3.350837
907.000000, 3.363002
908.000000, 3.367943
909.000000, 3.364288
910.000000, 3.354170
911.000000, 3.333875
912.000000, 3.304786
913.000000, 3.270054
914.000000, 3.228798
915.000000, 3.181032
916.000000, 3.136591
917.000000, 3.093063
918.000000, 3.052272
919.000000, 3.015366
920.000000, 2.987255
921.000000, 2.961228
922.000000, 2.940698
923.000000, 2.926116
924.000000, 2.914886
925.000000, 2.905741
926.000000, 2.900207
927.000000, 2.894710
928.000000, 2.890177
929.000000, 2.888116
930.000000, 2.887638
931.000000, 2.889993
932.000000, 2.896331
933.000000, 2.908900
934.000000, 2.930482
935.000000, 2.959867
936.000000, 2.997219
937.000000, 3.044854
938.000000, 3.099349
939.000000, 3.158311
940.000000, 3.223556
941.000000, 3.288141
942.000000, 3.346079
943.000000, 3.398647
944.000000, 3.441494
945.000000, 3.466331
946.000000, 3.475008
947.000000, 3.462144
948.000000, 3.430481
949.000000, 3.378998
950.000000, 3.307451
951.000000, 3.224586
952.000000, 3.128110
953.000000, 3.023852
954.000000, 2.923037
955.000000, 2.828515
956.000000, 2.740812
957.000000, 2.670082
958.000000, 2.616862
959.000000, 2.583303
960.000000, 2.572728
961.000000, 2.582429
962.000000, 2.613531
963.000000, 2.662899
964.000000, 2.723122
965.000000, 2.797318
966.000000, 2.875940
967.000000, 2.949525
968.000000, 3.020675
969.000000, 3.085005
970.000000, 3.133123
971.000000, 3.170006
972.000000, 3.190852
973.000000, 3.195635
974.000000, 3.187316
975.000000, 3.167846
976.000000, 3.141181
977.000000, 3.110160
978.000000, 3.077044
979.000000, 3.049017
980.000000, 3.028074
981.000000, 3.015680
982.000000, 3.015504
983.000000, 3.027232
984.000000, 3.053524
985.000000, 3.092228
986.000000, 3.138244
987.000000, 3.194917
988.000000, 3.257806
989.000000, 3.319846
990.000000, 3.384923
991.000000, 3.446035
992.000000, 3.494989
993.000000, 3.537933
994.000000, 3.569191
995.000000, 3.587421
996.000000, 3.594109
997.000000, 3.588680
998.000000, 3.573619
999.000000, 3.550171
1000.000000, 3.519869
1001.000000, 3.487269
1002.000000, 3.453570
1003.000000, 3.419522
1004.000000, 3.390279
1005.000000, 3.367602
1006.000000, 3.350243
1007.000000, 3.339750
1008.000000, 3.336644
1009.000000, 3.339822
1010.000000, 3.348300
1011.000000, 3.360214
1012.000000, 3.374299
1013.000000, 3.387742
1014.000000, 3.398850
1015.000000, 3.406589
1016.000000, 3.407338
1017.000000, 3.402235
1018.000000, 3.389066
1019.000000, 3.367323
1020.000000, 3.338801
1021.000000, 3.303326
1022.000000, 3.259406
1023.000000, 3.214240
1024.000000, 3.168478
1025.000000, 3.121472
1026.000000, 3.077394
1027.000000, 3.038562
1028.000000, 3.005221
1029.000000, 2.979847
1030.000000, 2.965401
1031.000000, 2.959967
1032.000000, 2.965183
1033.000000, 2.978737
1034.000000, 3.003195
1035.000000, 3.036180
1036.000000, 3.072507
1037.000000, 3.114508
1038.000000, 3.159820
1039.000000, 3.203154
1040.000000, 3.247702
1041.000000, 3.289023
1042.000000, 3.323918
1043.000000, 3.352879
1044.000000, 3.375365
1045.000000, 3.390149
1046.000000, 3.397528
1047.000000, 3.397870
1048.000000, 3.391414
1049.000000, 3.380767
1050.000000, 3.327663
1051.000000, 3.288622
1052.000000, 3.307875
1053.000000, 3.209170
1054.000000, 3.241999
1055.000000, 3.201656
1056.000000, 3.186941
1057.000000, 3.207065
1058.000000, 3.170786
1059.000000, 3.183247
1060.000000, 3.192972
1061.000000, 3.226801
1062.000000, 3.215138
1063.000000, 3.222671
1064.000000, 3.264869
1065.000000, 3.229075
1066.000000, 3.232081
1067.000000, 3.290514
1068.000000, 3.273050
1069.000000, 3.269165
1070.000000, 3.302568
1071.000000, 3.288807
1072.000000, 3.294539
1073.000000, 3.256553
1074.000000, 3.209411
1075.000000, 3.241462
1076.000000, 3.209695
1077.000000, 3.214169
1078.000000, 3.186737
1079.000000, 3.155382
1080.000000, 3.148211
1081.000000, 3.119268
1082.000000, 3.114922
1083.000000, 3.089033
1084.000000, 3.102584
1085.000000, 3.113264
1086.000000, 3.130268
1087.000000, 3.119999
1088.000000, 3.129571
1089.000000, 3.139948
1090.000000, 3.154732
1091.000000, 3.185041
1092.000000, 3.218283
1093.000000, 3.223098
1094.000000, 3.231996
1095.000000, 3.270470
1096.000000, 3.290632
1097.000000, 3.295287
1098.000000, 3.278400
1099.000000, 3.299345
1100.000000, 3.291404
1101.000000, 3.303965
1102.000000, 3.283957
1103.000000, 3.282856
1104.000000, 3.261839
1105.000000, 3.272405
1106.000000, 3.247355
1107.000000, 3.215033
1108.000000, 3.189371
1109.000000, 3.175833
1110.000000, 3.165358
1111.000000, 3.159476
1112.000000, 3.167277
1113.000000, 3.173287
1114.000000, 3.175919
1115.000000, 3.156924
1116.000000, 3.127818
1117.000000, 3.154074
1118.000000, 3.170816
1119.000000, 3.202366
1120.000000, 3.198346
1121.000000, 3.228397
1122.000000, 3.217895
1123.000000, 3.267429
1124.000000, 3.261931
1125.000000, 3.284123
1126.000000, 3.307217
1127.000000, 3.299439
1128.000000, 3.300168
1129.000000, 3.341197
1130.000000, 3.335289
1131.000000, 3.358378
1132.000000, 3.368306
1133.000000, 3.354402
1134.000000, 3.379869
1135.000000, 3.356895
1136.000000, 3.375460
1137.000000, 3.363647
1138.000000, 3.377251
1139.000000, 3.386687
1140.000000, 3.366041
1141.000000, 3.380815
1142.000000, 3.377937
1143.000000, 3.370425
1144.000000, 3.383317
1145.000000, 3.382424
1146.000000, 3.377588
1147.000000, 3.355279
1148.000000, 3.392702
1149.000000, 3.396494
1150.000000, 3.368890
1151.000000, 3.380081
1152.000000, 3.367502
1153.000000, 3.365306
1154.000000, 3.348211
1155.000000, 3.337428
1156.000000, 3.329390
1157.000000, 3.317381
1158.000000, 3.312338
1159.000000, 3.289384
1160.000000, 3.293447
1161.000000, 3.257755
1162.000000, 3.240107
1163.000000, 3.233100
1164.000000, 3.225634
1165.000000, 3.209992
1166.000000, 3.206360
1167.000000, 3.175662
1168.000000, 3.161315
1169.000000, 3.170355
1170.000000, 3.163834
1171.000000, 3.149479
1172.000000, 3.153800
1173.000000, 3.145972
1174.000000, 3.143402
1175.000000, 3.153808
1176.000000, 3.138545
1177.000000, 3.153694
1178.000000, 3.157268
1179.000000, 3.167337
1180.000000, 3.167804
1181.000000, 3.160537
1182.000000, 3.163593
1183.000000, 3.181638
1184.000000, 3.167337
1185.000000, 3.183624
1186.000000, 3.203229
1187.000000, 3.182680
1188.000000, 3.182169
1189.000000, 3.172610
1190.000000, 3.169051
1191.000000, 3.176170
1192.000000, 3.175040
1193.000000, 3.149770
1194.000000, 3.156214
1195.000000, 3.169745
1196.000000, 3.157339
1197.000000, 3.139923
1198.000000, 3.145263
1199.000000, 3.111224
1200.000000, 3.129050
1201.000000, 3.129330
1202.000000, 3.125904
1203.000000, 3.127814
1204.000000, 3.135748
1205.000000, 3.150477
1206.000000, 3.151186
1207.000000, 3.168726
1208.000000, 3.192926
1209.000000, 3.191994
1210.000000, 3.207288
1211.000000, 3.250955
1212.000000, 3.260562
1213.000000, 3.299019
1214.000000, 3.309516
1215.000000, 3.336283
1216.000000, 3.356270
1217.000000, 3.388294
1218.000000, 3.407659
1219.000000, 3.448928
1220.000000, 3.448264
1221.000000, 3.474300
1222.000000, 3.491701
1223.000000, 3.510191
1224.000000, 3.515241
1225.000000, 3.506477
1226.000000, 3.539793
1227.000000, 3.537727
1228.000000, 3.543562
1229.000000, 3.546881
1230.000000, 3.530345
1231.000000, 3.516543
1232.000000, 3.512142
1233.000000, 3.491994
1234.000000, 3.467879
1235.000000, 3.439523
1236.000000, 3.426733
1237.000000, 3.407968
1238.000000, 3.379579
1239.000000, 3.354435
1240.000000, 3.323014
1241.000000, 3.285252
1242.000000, 3.247031
1243.000000, 3.221503
1244.000000, 3.213017
1245.000000, 3.163857
1246.000000, 3.146901
1247.000000, 3.126515
1248.000000, 3.096598
1249.000000, 3.086277
1250.000000, 3.065144
1251.000000, 3.046930
1252.000000, 3.040269
1253.000000, 3.029362
1254.000000, 3.011765
1255.000000, 3.012255
1256.000000, 3.031777
1257.000000, 3.012245
1258.000000, 2.999345
1259.000000, 3.022225
1260.000000, 3.024078
1261.000000, 3.051026
1262.000000, 3.048591
1263.000000, 3.031861
1264.000000, 3.075225
1265.000000, 3.073677
1266.000000, 3.100664
1267.000000, 3.107724
1268.000000, 3.104708
1269.000000, 3.124860
1270.000000, 3.124419
1271.000000, 3.112683
1272.000000, 3.142868
1273.000000, 3.139528
1274.000000, 3.171529
1275.000000, 3.153031
1276.000000, 3.148777
1277.000000, 3.154407
1278.000000, 3.150771
1279.000000, 3.162058
1280.000000, 3.126751
1281.000000, 3.122169
1282.000000, 3.117776
1283.000000, 3.105880
1284.000000, 3.082061
1285.000000, 3.090608
1286.000000, 3.063085
1287.000000, 3.047458
1288.000000, 3.033417
1289.000000, 3.031002
1290.000000, 3.018458
1291.000000, 3.005851
1292.000000, 3.004629
1293.000000, 2.996935
1294.000000, 2.999779
1295.000000, 3.003511
1296.000000, 2.983770
1297.000000, 2.977022
1298.000000, 2.976113
1299.000000, 3.010550
1300.000000, 3.013624
1301.000000, 3.023759
1302.000000, 3.026859
1303.000000, 3.030658
1304.000000, 3.060696
1305.000000, 3.084005
1306.000000, 3.097269
1307.000000, 3.111408
1308.000000, 3.155834
1309.000000, 3.173343
1310.000000, 3.180615
1311.000000, 3.219245
1312.000000, 3.228312
1313.000000, 3.251024
1314.000000, 3.266842
1315.000000, 3.284493
1316.000000, 3.317741
1317.000000, 3.321994
1318.000000, 3.334427
1319.000000, 3.343635
1320.000000, 3.351623
1321.000000, 3.341183
1322.000000, 3.348510
1323.000000, 3.339114
1324.000000, 3.341076
1325.000000, 3.326726
1326.000000, 3.318835
1327.000000, 3.298158
1328.000000, 3.277013
1329.000000, 3.278049
1330.000000, 3.255859
1331.000000, 3.223684
1332.000000, 3.199194
1333.000000, 3.198640
1334.000000, 3.163615
1335.000000, 3.149617
1336.000000, 3.133173
1337.000000, 3.116268
1338.000000, 3.089598
1339.000000, 3.075127
1340.000000, 3.062073
1341.000000, 3.062219
1342.000000, 3.040694
1343.000000, 3.038304
1344.000000, 3.022405
1345.000000, 3.032741
1346.000000, 3.034338
1347.000000, 3.027113
1348.000000, 3.016852
1349.000000, 3.051208
1350.000000, 3.061103
1351.000000, 3.039334
1352.000000, 3.070879
1353.000000, 3.071220
1354.000000, 3.097965
1355.000000, 3.080463
1356.000000, 3.097453
1357.000000, 3.123277
1358.000000, 3.129398
1359.000000, 3.130466
1360.000000, 3.140022
1361.000000, 3.164436
1362.000000, 3.154044
1363.000000, 3.151189
1364.000000, 3.184092
1365.000000, 3.150274
1366.000000, 3.162542
1367.000000, 3.126057
1368.000000, 3.145626
1369.000000, 3.120010
1370.000000, 3.086669
1371.000000, 3.059536
1372.000000, 3.049321
1373.000000, 3.029817
1374.000000, 2.998801
1375.000000, 2.943715
1376.000000, 2.915582
1377.000000, 2.895138
1378.000000, 2.883401
1379.000000, 2.854553
1380.000000, 2.813718
1381.000000, 2.826852
1382.000000, 2.773591
1383.000000, 2.790811
1384.000000, 2.768309
1385.000000, 2.749739
1386.000000, 2.757905
1387.000000, 2.746672
1388.000000, 2.756712
1389.000000, 2.770961
1390.000000, 2.768245
1391.000000, 2.812366
1392.000000, 2.796020
1393.000000, 2.833676
1394.000000, 2.843998
1395.000000, 2.884560
1396.000000, 2.888837
1397.000000, 2.905856
1398.000000, 2.951852
1399.000000, 2.969644
1400.000000, 2.990007
1401.000000, 2.999401
1402.000000, 3.034431
1403.000000, 3.043531
1404.000000, 3.078462
1405.000000, 3.105868
1406.000000, 3.113192
1407.000000, 3.118561
1408.000000, 3.161980
1409.000000, 3.137845
1410.000000, 3.169404
1411.000000, 3.167578
1412.000000, 3.169734
1413.000000, 3.171020
1414.000000, 3.147737
1415.000000, 3.152301
1416.000000, 3.135517
1417.000000, 3.129426
1418.000000, 3.101200
1419.000000, 3.081895
1420.000000, 3.058165
1421.000000, 3.029133
1422.000000, 3.023387
1423.000000, 2.993109
1424.000000, 2.988407
1425.000000, 2.945745
1426.000000, 2.932126
1427.000000, 2.917300
1428.000000, 2.892123
1429.000000, 2.866505
1430.000000, 2.862269
1431.000000, 2.841314
1432.000000, 2.826130
1433.000000, 2.816539
1434.000000, 2.821910
1435.000000, 2.814234
1436.000000, 2.823753
1437.000000, 2.814882
1438.000000, 2.834305
1439.000000, 2.835313
1440.000000, 2.851603
1441.000000, 2.869663
1442.000000, 2.886613
1443.000000, 2.932897
1444.000000, 2.951126
1445.000000, 2.968015
1446.000000, 2.994637
1447.000000, 3.020979
1448.000000, 3.057932
1449.000000, 3.087299
1450.000000, 3.101482
1451.000000, 3.142724
1452.000000, 3.153002
1453.000000, 3.193094
1454.000000, 3.217251
1455.000000, 3.253192
1456.000000, 3.259725
1457.000000, 3.272950
1458.000000, 3.276617
1459.000000, 3.274838
1460.000000, 3.298160
1461.000000, 3.292457
1462.000000, 3.289001
1463.000000, 3.286589
1464.000000, 3.267303
1465.000000, 3.243653
1466.000000, 3.252545
1467.000000, 3.243497
1468.000000, 3.206309
1469.000000, 3.185581
1470.000000, 3.149221
1471.000000, 3.132715
1472.000000, 3.075550
1473.000000, 3.072128
1474.000000, 3.041464
1475.000000, 3.014671
1476.000000, 2.974012
1477.000000, 2.953478
1478.000000, 2.934918
1479.000000, 2.900741
1480.000000, 2.848905
1481.000000, 2.828911
1482.000000, 2.855688
1483.000000, 2.818202
1484.000000, 2.818529
1485.000000, 2.805503
1486.000000, 2.799207
1487.000000, 2.791830
1488.000000, 2.786682
1489.000000, 2.801278
1490.000000, 2.836165
1491.000000, 2.832053
1492.000000, 2.846093
1493.000000, 2.875325
1494.000000, 2.871197
1495.000000, 2.914636
1496.000000, 2.946317
1497.000000, 2.985946
1498.000000, 3.004169
1499.000000, 3.049536
1500.000000, 3.061652
1501.000000, 3.099659
1502.000000, 3.123664
1503.000000, 3.180539
1504.000000, 3.194540
1505.000000, 3.222297
1506.000000, 3.256220
1507.000000, 3.295582
1508.000000, 3.294682
1509.000000, 3.317233
1510.000000, 3.311894
1511.000000, 3.331165
1512.000000, 3.335088
1513.000000, 3.331542
1514.000000, 3.336945
1515.000000, 3.313221
1516.000000, 3.318023
1517.000000, 3.288732
1518.000000, 3.265776
1519.000000, 3.260194
1520.000000, 3.207587
1521.000000, 3.162853
1522.000000, 3.138347
1523.000000, 3.106523
1524.000000, 3.084793
1525.000000, 3.030768
1526.000000, 2.994687
1527.000000, 2.949002
1528.000000, 2.905065
1529.000000, 2.863456
1530.000000, 2.817300
1531.000000, 2.785625
1532.000000, 2.739305
1533.000000, 2.713432
1534.000000, 2.673361
1535.000000, 2.651090
1536.000000, 2.610453
1537.000000, 2.601714
1538.000000, 2.549912
1539.000000, 2.560157
1540.000000, 2.527079
1541.000000, 2.531414
1542.000000, 2.535664
1543.000000, 2.534740
1544.000000, 2.549019
1545.000000, 2.542941
1546.000000, 2.575714
1547.000000, 2.593288
1548.000000, 2.603462
1549.000000, 2.637948
1550.000000, 2.657880
1551.000000, 2.689196
1552.000000, 2.755843
1553.000000, 2.766503
1554.000000, 2.812157
1555.000000, 2.862377
1556.000000, 2.890588
1557.000000, 2.924704
1558.000000, 2.970619
1559.000000, 3.020903
1560.000000, 3.067678
1561.000000, 3.086894
1562.000000, 3.120404
1563.000000, 3.149957
1564.000000, 3.187331
1565.000000, 3.184699
1566.000000, 3.228807
1567.000000, 3.282579
1568.000000, 3.257809
1569.000000, 3.276176
1570.000000, 3.283173
1571.000000, 3.279989
1572.000000, 3.311004
1573.000000, 3.264317
1574.000000, 3.283138
1575.000000, 3.261046
1576.000000, 3.249753
1577.000000, 3.225804
1578.000000, 3.193878
1579.000000, 3.187321
1580.000000, 3.158578
1581.000000, 3.115616
1582.000000, 3.097503
1583.000000, 3.060621
1584.000000, 3.040852
1585.000000, 3.021786
1586.000000, 2.999966
1587.000000, 2.943940
1588.000000, 2.921774
1589.000000, 2.900592
1590.000000, 2.887774
1591.000000, 2.891135
1592.000000, 2.854305
1593.000000, 2.839238
1594.000000, 2.844017
1595.000000, 2.814044
1596.000000, 2.849716
1597.000000, 2.830961
1598.000000, 2.846716
1599.000000, 2.861429
1600.000000, 2.910743
1601.000000, 2.941459
1602.000000, 2.965599
1603.000000, 2.987170
1604.000000, 3.025613
1605.000000, 3.043213
1606.000000, 3.120837
1607.000000, 3.166781
1608.000000, 3.223967
1609.000000, 3.280992
1610.000000, 3.371397
1611.000000, 3.410120
1612.000000, 3.510281
1613.000000, 3.553237
1614.000000, 3.666613
1615.000000, 3.734862
1616.000000, 3.820678
1617.000000, 3.904166
1618.000000, 4.012409
1619.000000, 4.093456
1620.000000, 4.204323
1621.000000, 4.309812
1622.000000, 4.402058
1623.000000, 4.561225
1624.000000, 4.692787
1625.000000, 4.808096
1626.000000, 4.951891
1627.000000, 5.088987
1628.000000, 5.235792
1629.000000, 5.413185
1630.000000, 5.617632
1631.000000, 5.776399
1632.000000, 6.036846
1633.000000, 6.195795
1634.000000, 6.452118
1635.000000, 6.735569
1636.000000, 6.968435
1637.000000, 7.296965
1638.000000, 7.626575
1639.000000, 7.951075
1640.000000, 8.314632
1641.000000, 8.702005
1642.000000, 9.108312
1643.000000, 9.558321
1644.000000, 10.052272
1645.000000, 10.569740
1646.000000, 11.104984
1647.000000, 11.634955
1648.000000, 12.258685
1649.000000, 12.854555
1650.000000, 13.504865
1651.000000, 14.237953
1652.000000, 14.926421
1653.000000, 15.631886
1654.000000, 16.398394
1655.000000, 17.164272
1656.000000, 17.927780
1657.000000, 18.829656
1658.000000, 19.624994
1659.000000, 20.456148
1660.000000, 21.316773
1661.000000, 22.199962
1662.000000, 23.025663
1663.000000, 23.961275
1664.000000, 24.870534
1665.000000, 25.712001
1666.000000, 26.534512
1667.000000, 27.417990
1668.000000, 28.228822
1669.000000, 29.053252
1670.000000, 29.904228
1671.000000, 30.663101
1672.000000, 31.431263
1673.000000, 32.185171
1674.000000, 32.869858
1675.000000, 33.532381
1676.000000, 34.203248
1677.000000, 34.775175
1678.000000, 35.356698
1679.000000, 35.909061
1680.000000, 36.397066
1681.000000, 36.846857
1682.000000, 37.302214
1683.000000, 37.693312
1684.000000, 38.002885
1685.000000, 38.306986
1686.000000, 38.588257
1687.000000, 38.820982
1688.000000, 39.004855
1689.000000, 39.172752
1690.000000, 39.283409
1691.000000, 39.360259
1692.000000, 39.393433
1693.000000, 39.388518
1694.000000, 39.372283
1695.000000, 39.316317
1696.000000, 39.232464
1697.000000, 39.134921
1698.000000, 38.975336
1699.000000, 38.781599
1700.000000, 38.604844
1701.000000, 38.368390
1702.000000, 38.146642
1703.000000, 37.855183
1704.000000, 37.592753
1705.000000, 37.281226
1706.000000, 37.000899
1707.000000, 36.639316
1708.000000, 36.264269
1709.000000, 35.919321
1710.000000, 35.558848
1711.000000, 35.173595
1712.000000, 34.765596
1713.000000, 34.392883
1714.000000, 33.959413
1715.000000, 33.590019
1716.000000, 33.198223
1717.000000, 32.777619
1718.000000, 32.387602
1719.000000, 31.975153
1720.000000, 31.544353
1721.000000, 31.169687
1722.000000, 30.791026
1723.000000, 30.386167
1724.000000, 30.026530
1725.000000, 29.684094
1726.000000, 29.324037
1727.000000, 28.991446
1728.000000, 28.712692
1729.000000, 28.438421
1730.000000, 28.134347
1731.000000, 27.883742
1732.000000, 27.678982
1733.000000, 27.475957
1734.000000, 27.295960
1735.000000, 27.165646
1736.000000, 27.057770
1737.000000, 26.980746
1738.000000, 26.946293
1739.000000, 26.914181
1740.000000, 26.988620
1741.000000, 27.003428
1742.000000, 27.081699
1743.000000, 27.185335
1744.000000, 27.360292
1745.000000, 27.518278
1746.000000, 27.727217
1747.000000, 27.973819
1748.000000, 28.271227
1749.000000, 28.566246
1750.000000, 28.855609
1751.000000, 29.231389
1752.000000, 29.593768
1753.000000, 29.966587
1754.000000, 30.382821
1755.000000, 30.788347
1756.000000, 31.205514
1757.000000, 31.637268
1758.000000, 32.066572
1759.000000, 32.478686
1760.000000, 32.889673
1761.000000, 33.346253
1762.000000, 33.737859
1763.000000, 34.162312
1764.000000, 34.559230
1765.000000, 34.916549
1766.000000, 35.244495
1767.000000, 35.589050
1768.000000, 35.887199
1769.000000, 36.166722
1770.000000, 36.440269
1771.000000, 36.619898
1772.000000, 36.833625
1773.000000, 36.940193
1774.000000, 37.091906
1775.000000, 37.200684
1776.000000, 37.268137
1777.000000, 37.296511
1778.000000, 37.279565
1779.000000, 37.255228
1780.000000, 37.161911
1781.000000, 37.086857
1782.000000, 36.949310
1783.000000, 36.779929
1784.000000, 36.591007
1785.000000, 36.394097
1786.000000, 36.112077
1787.000000, 35.889565
1788.000000, 35.575938
1789.000000, 35.246635
1790.000000, 34.851408
1791.000000, 34.480344
1792.000000, 34.106477
1793.000000, 33.707727
1794.000000, 33.296708
1795.000000, 32.815415
1796.000000, 32.325289
1797.000000, 31.913340
1798.000000, 31.347062
1799.000000, 30.862322
1800.000000, 30.329552
1801.000000, 29.720212
1802.000000, 29.177363
1803.000000, 28.614493
1804.000000, 28.055198
1805.000000, 27.486821
1806.000000, 26.850199
1807.000000, 26.231034
1808.000000, 25.649128
1809.000000, 25.045411
1810.000000, 24.480079
1811.000000, 23.835756
1812.000000, 23.194075
1813.000000, 22.642435
1814.000000, 21.952861
1815.000000, 21.336530
1816.000000, 20.751364
1817.000000, 20.191042
1818.000000, 19.624908
1819.000000, 19.103190
1820.000000, 18.559392
1821.000000, 17.928950
1822.000000, 17.451742
1823.000000, 16.953428
1824.000000, 16.551625
1825.000000, 16.219294
1826.000000, 15.788820
1827.000000, 15.465327
1828.000000, 15.173900
1829.000000, 14.899956
1830.000000, 14.706861
1831.000000, 14.517966
1832.000000, 14.353074
1833.000000, 14.244468
1834.000000, 14.253098
1835.000000, 14.253118
1836.000000, 14.297378
1837.000000, 14.479994
1838.000000, 14.583733
1839.000000, 14.808436
1840.000000, 15.100370
1841.000000, 15.390462
1842.000000, 15.779970
1843.000000, 16.124277
1844.000000, 16.453029
1845.000000, 16.860257
1846.000000, 17.324592
1847.000000, 17.857637
1848.000000, 18.505529
1849.000000, 19.209865
1850.000000, 19.671437
1851.000000, 20.167267
1852.000000, 20.732678
1853.000000, 21.349741
1854.000000, 21.992782
1855.000000, 22.615971
1856.000000, 23.182200
1857.000000, 23.745354
1858.000000, 24.383555
1859.000000, 24.999981
1860.000000, 25.491775
1861.000000, 26.071160
1862.000000, 26.571250
1863.000000, 27.020053
1864.000000, 27.367998
1865.000000, 27.791133
1866.000000, 28.153109
1867.000000, 28.518321
1868.000000, 28.876203
1869.000000, 29.259889
1870.000000, 29.461252
1871.000000, 29.723426
1872.000000, 29.959702
1873.000000, 30.158463
1874.000000, 30.259567
1875.000000, 30.445877
1876.000000, 30.498833
1877.000000, 30.607938
1878.000000, 30.621331
1879.000000, 30.663399
1880.000000, 30.660296
1881.000000, 30.598700
1882.000000, 30.572843
1883.000000, 30.461301
1884.000000, 30.388899
1885.000000, 30.263785
1886.000000, 30.122322
1887.000000, 30.015030
1888.000000, 29.841354
1889.000000, 29.634793
1890.000000, 29.456749
1891.000000, 29.240246
1892.000000, 29.115579
1893.000000, 28.813374
1894.000000, 28.566311
1895.000000, 28.270812
1896.000000, 28.131004
1897.000000, 27.843468
1898.000000, 27.615919
1899.000000, 27.285142
1900.000000, 27.023958
1901.000000, 26.760144
1902.000000, 26.475649
1903.000000, 26.273140
1904.000000, 26.033666
1905.000000, 25.863244
1906.000000, 25.466661
1907.000000, 25.214393
1908.000000, 25.040371
1909.000000, 24.775042
1910.000000, 24.690712
1911.000000, 24.504970
1912.000000, 24.324793
1913.000000, 24.114594
1914.000000, 23.875720
1915.000000, 23.860713
1916.000000, 23.700577
1917.000000, 23.633966
1918.000000, 23.486673
1919.000000, 23.449921
1920.000000, 23.405325
1921.000000, 23.477253
1922.000000, 23.431179
1923.000000, 23.519717
1924.000000, 23.539674
1925.000000, 23.624678
1926.000000, 23.728400
1927.000000, 23.893577
1928.000000, 24.054537
1929.000000, 24.222191
1930.000000, 24.366293
1931.000000, 24.656356
1932.000000, 24.786908
1933.000000, 25.075765
1934.000000, 25.349842
1935.000000, 25.596760
1936.000000, 25.881897
1937.000000, 26.268043
1938.000000, 26.586014
1939.000000, 26.935816
1940.000000, 27.262128
1941.000000, 27.592512
1942.000000, 27.988824
1943.000000, 28.322943
1944.000000, 28.693220
1945.000000, 28.960529
1946.000000, 29.385667
1947.000000, 29.718414
1948.000000, 30.104320
1949.000000, 30.484328
1950.000000, 30.810032
1951.000000, 31.130187
1952.000000, 31.400865
1953.000000, 31.812281
1954.000000, 31.995464
1955.000000, 32.350159
1956.000000, 32.618793
1957.000000, 32.859391
1958.000000, 33.072155
1959.000000, 33.318624
1960.000000, 33.481290
1961.000000, 33.695315
1962.000000, 33.830402
1963.000000, 33.924992
1964.000000, 34.103159
1965.000000, 34.175975
1966.000000, 34.212326
1967.000000, 34.285487
1968.000000, 34.362841
1969.000000, 34.400003
1970.000000, 34.361065
1971.000000, 34.346610
1972.000000, 34.289534
1973.000000, 34.212141
1974.000000, 34.149572
1975.000000, 34.064088
1976.000000, 33.958482
1977.000000, 33.824950
1978.000000, 33.661780
1979.000000, 33.491955
1980.000000, 33.363628
1981.000000, 33.115743
1982.000000, 32.852622
1983.000000, 32.649947
1984.000000, 32.446112
1985.000000, 32.170368
1986.000000, 31.963234
1987.000000, 31.638780
1988.000000, 31.371093
1989.000000, 31.051805
1990.000000, 30.758502
1991.000000, 30.379251
1992.000000, 30.092151
1993.000000, 29.777695
1994.000000, 29.408548
1995.000000, 29.078114
1996.000000, 28.756143
1997.000000, 28.347869
1998.000000, 28.012924
1999.000000, 27.607328
2000.000000, 27.443390
2001.000000, 27.124776
2002.000000, 26.749379
2003.000000, 26.307258
2004.000000, 26.029671
2005.000000, 25.565941
2006.000000, 25.268735
2007.000000, 24.789841
2008.000000, 24.490488
2009.000000, 24.028074
2010.000000, 23.836895
2011.000000, 23.401934
2012.000000, 23.025580
2013.000000, 22.644265
2014.000000, 22.353001
2015.000000, 22.032549
2016.000000, 21.718752
2017.000000, 21.461285
2018.000000, 21.126308
2019.000000, 20.944044
2020.000000, 20.570117
2021.000000, 20.293486
2022.000000, 20.073644
2023.000000, 19.909713
2024.000000, 19.769735
2025.000000, 19.506757
2026.000000, 19.409737
2027.000000, 19.242447
2028.000000, 19.104421
2029.000000, 18.982323
2030.000000, 18.898232
2031.000000, 18.848988
2032.000000, 18.800790
2033.000000, 18.847982
2034.000000, 18.768403
2035.000000, 18.847803
2036.000000, 18.814798
2037.000000, 18.885215
2038.000000, 18.997764
2039.000000, 18.998694
2040.000000, 19.125125
2041.000000, 19.290929
2042.000000, 19.382976
2043.000000, 19.444540
2044.000000, 19.681769
2045.000000, 19.782183
2046.000000, 19.934092
2047.000000, 20.069029
2048.000000, 20.270580
2049.000000, 20.455249
2050.000000, 20.675072
2051.000000, 20.908686
2052.000000, 21.002351
2053.000000, 21.270906
2054.000000, 21.445058
2055.000000, 21.591702
2056.000000, 21.895264
2057.000000, 21.966492
2058.000000, 22.035451
2059.000000, 22.261022
2060.000000, 22.455680
2061.000000, 22.583543
2062.000000, 22.819108
2063.000000, 22.860074
2064.000000, 22.973268
2065.000000, 23.114700
2066.000000, 23.160683
2067.000000, 23.239896
2068.000000, 23.301646
2069.000000, 23.417256
2070.000000, 23.369155
2071.000000, 23.442363
2072.000000, 23.496605
2073.000000, 23.295528
2074.000000, 23.461443
2075.000000, 23.431274
2076.000000, 23.373465
2077.000000, 23.242694
2078.000000, 23.217208
2079.000000, 23.048204
2080.000000, 23.018446
2081.000000, 22.894312
2082.000000, 22.754671
2083.000000, 22.604892
2084.000000, 22.309013
2085.000000, 22.182079
2086.000000, 22.022766
2087.000000, 21.802980
2088.000000, 21.615184
2089.000000, 21.422010
2090.000000, 21.152152
2091.000000, 20.940083
2092.000000, 20.605655
2093.000000, 20.414034
2094.000000, 20.103542
2095.000000, 19.784864
2096.000000, 19.607633
2097.000000, 19.243075
2098.000000, 18.987878
2099.000000, 18.701637
2100.000000, 18.379820
2101.000000, 18.105084
2102.000000, 17.768570
2103.000000, 17.519419
2104.000000, 17.205154
2105.000000, 16.898242
2106.000000, 16.655995
2107.000000, 16.307085
2108.000000, 16.001322
2109.000000, 15.743579
2110.000000, 15.443095
2111.000000, 15.144407
2112.000000, 14.943417
2113.000000, 14.724097
2114.000000, 14.562256
2115.000000, 14.252448
2116.000000, 14.070537
2117.000000, 13.880513
2118.000000, 13.635723
2119.000000, 13.461191
2120.000000, 13.311666
2121.000000, 13.217149
2122.000000, 13.074183
2123.000000, 13.163235
2124.000000, 13.075726
2125.000000, 13.150006
2126.000000, 12.995095
2127.000000, 13.078450
2128.000000, 13.207247
2129.000000, 13.236433
2130.000000, 13.386700
2131.000000, 13.482544
2132.000000, 13.803507
2133.000000, 13.884558
2134.000000, 14.121158
2135.000000, 14.359852
2136.000000, 14.633014
2137.000000, 14.864510
2138.000000, 15.179172
2139.000000, 15.668240
2140.000000, 15.955964
2141.000000, 16.351933
2142.000000, 17.037350
2143.000000, 17.241664
2144.000000, 17.656825
2145.000000, 18.316721
2146.000000, 18.745132
2147.000000, 19.286816
2148.000000, 19.892397
2149.000000, 20.220521
2150.000000, 20.908221
2151.000000, 21.450009
2152.000000, 21.968301
2153.000000, 22.497828
2154.000000, 23.156101
2155.000000, 23.711728
2156.000000, 24.239761
2157.000000, 24.955921
2158.000000, 25.553224
2159.000000, 25.974972
2160.000000, 26.594153
2161.000000, 27.106304
2162.000000, 27.639625
2163.000000, 28.226062
2164.000000, 28.714132
2165.000000, 29.181529
2166.000000, 29.677951
2167.000000, 30.248903
2168.000000, 30.677604
2169.000000, 31.123429
2170.000000, 31.524448
2171.000000, 32.014894
2172.000000, 32.266529
2173.000000, 32.805784
2174.000000, 33.062944
2175.000000, 33.223972
2176.000000, 33.713039
2177.000000, 33.996012
2178.000000, 34.154392
2179.000000, 34.541242
2180.000000, 34.770703
2181.000000, 34.909091
2182.000000, 35.125161
2183.000000, 35.224947
2184.000000, 35.248929
2185.000000, 35.425237
2186.000000, 35.484793
2187.000000, 35.496145
2188.000000, 35.555687
2189.000000, 35.585324
2190.000000, 35.504525
2191.000000, 35.506860
2192.000000, 35.452970
2193.000000, 35.209477
2194.000000, 35.178924
2195.000000, 35.143984
2196.000000, 34.805680
2197.000000, 34.676520
2198.000000, 34.440816
2199.000000, 34.177445
2200.000000, 33.998775
2201.000000, 33.727553
2202.000000, 33.501523
2203.000000, 33.209638
2204.000000, 32.949994
2205.000000, 32.706091
2206.000000, 32.380121
2207.000000, 32.127156
2208.000000, 31.968726
2209.000000, 31.568716
2210.000000, 31.473198
2211.000000, 31.099317
2212.000000, 30.899086
2213.000000, 30.500843
2214.000000, 30.477791
2215.000000, 30.185623
2216.000000, 29.759988
2217.000000, 29.558721
2218.000000, 29.446179
2219.000000, 29.096531
2220.000000, 28.788692
2221.000000, 28.475642
2222.000000, 28.155477
2223.000000, 27.992806
2224.000000, 27.644938
2225.000000, 27.244015
2226.000000, 26.901561
2227.000000, 26.518203
2228.000000, 26.148526
2229.000000, 25.841293
2230.000000, 25.354517
2231.000000, 25.152839
2232.000000, 24.640271
2233.000000, 24.331306
2234.000000, 24.070865
2235.000000, 23.568903
2236.000000, 23.123970
2237.000000, 22.678893
2238.000000, 22.386399
2239.000000, 22.013181
2240.000000, 21.591463
2241.000000, 21.076999
2242.000000, 20.888021
2243.000000, 20.467660
2244.000000, 19.946934
2245.000000, 19.694873
2246.000000, 19.211889
2247.000000, 19.080432
2248.000000, 18.589917
2249.000000, 18.109879
2250.000000, 17.865664
2251.000000, 17.470552
2252.000000, 17.193713
2253.000000, 16.921147
2254.000000, 16.658621
2255.000000, 16.319789
2256.000000, 15.959992
2257.000000, 15.841964
2258.000000, 15.613708
2259.000000, 15.252793
2260.000000, 15.239704
2261.000000, 14.920635
2262.000000, 14.779676
2263.000000, 14.622202
2264.000000, 14.493053
2265.000000, 14.286304
2266.000000, 14.348047
2267.000000, 14.027612
2268.000000, 14.019085
2269.000000, 14.169617
2270.000000, 13.938040
2271.000000, 13.924299
2272.000000, 13.822929
2273.000000, 13.829364
2274.000000, 13.879310
2275.000000, 13.826436
2276.000000, 14.225406
2277.000000, 14.023563
2278.000000, 14.159656
2279.000000, 14.379652
2280.000000, 14.738505
2281.000000, 14.836928
2282.000000, 15.135762
2283.000000, 15.190426
2284.000000, 15.500398
2285.000000, 15.744408
2286.000000, 15.949083
2287.000000, 16.112245
2288.000000, 16.500922
2289.000000, 16.788522
2290.000000, 17.143563
2291.000000, 17.293807
2292.000000, 17.694816
2293.000000, 17.959028
2294.000000, 18.173271
2295.000000, 18.537628
2296.000000, 18.944372
2297.000000, 19.324254
2298.000000, 19.624572
2299.000000, 19.839649
2300.000000, 20.285671
2301.000000, 20.595055
2302.000000, 20.767166
2303.000000, 21.011663
2304.000000, 21.455878
2305.000000, 21.597351
2306.000000, 21.933291
2307.000000, 22.348234
2308.000000, 22.465306
2309.000000, 22.810590
2310.000000, 23.089265
2311.000000, 23.339000
2312.000000, 23.650899
2313.000000, 23.693460
2314.000000, 23.941615
2315.000000, 24.094319
2316.000000, 24.437168
2317.000000, 24.453765
2318.000000, 24.652529
2319.000000, 24.889723
2320.000000, 24.895687
2321.000000, 25.207494
2322.000000, 25.104843
2323.000000, 25.168546
2324.000000, 25.392466
2325.000000, 25.291731
2326.000000, 25.303291
2327.000000, 25.498837
2328.000000, 25.451248
2329.000000, 25.499440
2330.000000, 25.555932
2331.000000, 25.521970
2332.000000, 25.411972
2333.000000, 25.396759
2334.000000, 25.606198
2335.000000, 25.485796
2336.000000, 25.102272
2337.000000, 25.194008
2338.000000, 24.860710
2339.000000, 24.913276
2340.000000, 24.791151
2341.000000, 24.569056
2342.000000, 24.604749
2343.000000, 24.132783
2344.000000, 24.113445
2345.000000, 23.945330
2346.000000, 23.724307
2347.000000, 23.594672
2348.000000, 23.396694
2349.000000, 23.270247
2350.000000, 23.062726
2351.000000, 22.643522
2352.000000, 22.384966
2353.000000, 22.255438
2354.000000, 21.849270
2355.000000, 21.675647
2356.000000, 21.370710
2357.000000, 21.126286
2358.000000, 20.964200
2359.000000, 20.448173
2360.000000, 20.134700
2361.000000, 19.834363
2362.000000, 19.742920
2363.000000, 19.321075
2364.000000, 18.852299
2365.000000, 18.721210
2366.000000, 18.245920
2367.000000, 17.995296
2368.000000, 17.849018
2369.000000, 17.614109
2370.000000, 17.014280
2371.000000, 16.763971
2372.000000, 16.468690
2373.000000, 16.054804
2374.000000, 15.683524
2375.000000, 15.405260
2376.000000, 15.187056
2377.000000, 14.614220
2378.000000, 14.495781
2379.000000, 14.074415
2380.000000, 13.890481
2381.000000, 13.557287
2382.000000, 13.200206
2383.000000, 13.104501
2384.000000, 12.738828
2385.000000, 12.571090
2386.000000, 12.358519
2387.000000, 11.849863
2388.000000, 11.786538
2389.000000, 11.541789
2390.000000, 11.570506
2391.000000, 10.990246
2392.000000, 11.055733
2393.000000, 11.064084
2394.000000, 10.885684
2395.000000, 10.447286
2396.000000, 10.776139
2397.000000, 10.623978
2398.000000, 10.516033
2399.000000, 10.444845
2400.000000, 10.264879
2401.000000, 10.223775
2402.000000, 10.147447
2403.000000, 10.264991
2404.000000, 10.550681
2405.000000, 10.496152
2406.000000, 10.606583
2407.000000, 10.459310
2408.000000, 10.857419
2409.000000, 10.615389
2410.000000, 10.809416
2411.000000, 11.140867
2412.000000, 11.235654
2413.000000, 11.186761
2414.000000, 11.508197
2415.000000, 12.018558
2416.000000, 12.015887
2417.000000, 12.388562
2418.000000, 12.489197
2419.000000, 12.861219
2420.000000, 13.062874
2421.000000, 13.450860
2422.000000, 14.042819
2423.000000, 14.272186
2424.000000, 14.875815
2425.000000, 14.972676
2426.000000, 15.144221
2427.000000, 15.507717
2428.000000, 15.872918
2429.000000, 16.267853
2430.000000, 16.951411
2431.000000, 17.173754
2432.000000, 17.240315
2433.000000, 17.858571
2434.000000, 18.268691
2435.000000, 18.672116
2436.000000, 19.096370
2437.000000, 19.669277
2438.000000, 19.866584
2439.000000, 20.078704
2440.000000, 20.771843
2441.000000, 20.888919
2442.000000, 21.331914
2443.000000, 21.985266
2444.000000, 21.734426
2445.000000, 22.279115
2446.000000, 22.710781
2447.000000, 22.930951
2448.000000, 23.462077
2449.000000, 23.643688
2450.000000, 23.974330
2451.000000, 24.468693
2452.000000, 24.859569
2453.000000, 24.711682
2454.000000, 25.345597
2455.000000, 25.715510
2456.000000, 25.700271
2457.000000, 25.711170
2458.000000, 26.048782
2459.000000, 26.637190
2460.000000, 26.522419
2461.000000, 26.792877
2462.000000, 27.020744
2463.000000, 27.071897
2464.000000, 27.448069
2465.000000, 27.440277
2466.000000, 27.537826
2467.000000, 27.916881
2468.000000, 27.942749
2469.000000, 28.084402
2470.000000, 28.354533
2471.000000, 28.036610
2472.000000, 28.301667
2473.000000, 28.527459
2474.000000, 28.233694
2475.000000, 28.462119
2476.000000, 28.573590
2477.000000, 28.605712
2478.000000, 28.570074
2479.000000, 28.717455
2480.000000, 28.507679
2481.000000, 28.595508
2482.000000, 28.899939
2483.000000, 28.717158
2484.000000, 28.823443
2485.000000, 28.354696
2486.000000, 28.377338
2487.000000, 28.447779
2488.000000, 28.124526
2489.000000, 28.434101
2490.000000, 28.279169
2491.000000, 27.781664
2492.000000, 27.704794
2493.000000, 27.559485
2494.000000, 27.072295
2495.000000, 27.252842
2496.000000, 27.320435
2497.000000, 27.167279
2498.000000, 27.179628
2499.000000, 26.745463
2500.000000, 26.851329
