# Wavelength  (nm), Transmission (%)
200.000000, 0.000067
201.000000, 0.000081
202.000000, 0.000088
203.000000, 0.000099
204.000000, 0.000108
205.000000, 0.000093
206.000000, 0.000109
207.000000, 0.000104
208.000000, 0.000116
209.000000, 0.000116
210.000000, 0.000109
211.000000, 0.000103
212.000000, 0.000091
213.000000, 0.000094
214.000000, 0.000111
215.000000, 0.000100
216.000000, 0.000124
217.000000, 0.000112
218.000000, 0.000100
219.000000, 0.000114
220.000000, 0.000114
221.000000, 0.000103
222.000000, 0.000095
223.000000, 0.000099
224.000000, 0.000114
225.000000, 0.000117
226.000000, 0.000124
227.000000, 0.000124
228.000000, 0.000125
229.000000, 0.000121
230.000000, 0.000117
231.000000, 0.000116
232.000000, 0.000111
233.000000, 0.000120
234.000000, 0.000142
235.000000, 0.000139
236.000000, 0.000137
237.000000, 0.000113
238.000000, 0.000114
239.000000, 0.000119
240.000000, 0.000126
241.000000, 0.000121
242.000000, 0.000103
243.000000, 0.000121
244.000000, 0.000135
245.000000, 0.000120
246.000000, 0.000127
247.000000, 0.000136
248.000000, 0.000123
249.000000, 0.000120
250.000000, 0.000120
251.000000, 0.000115
252.000000, 0.000123
253.000000, 0.000127
254.000000, 0.000127
255.000000, 0.000117
256.000000, 0.000116
257.000000, 0.000108
258.000000, 0.000110
259.000000, 0.000122
260.000000, 0.000111
261.000000, 0.000120
262.000000, 0.000125
263.000000, 0.000131
264.000000, 0.000139
265.000000, 0.000131
266.000000, 0.000126
267.000000, 0.000118
268.000000, 0.000127
269.000000, 0.000137
270.000000, 0.000136
271.000000, 0.000146
272.000000, 0.000139
273.000000, 0.000126
274.000000, 0.000128
275.000000, 0.000133
276.000000, 0.000137
277.000000, 0.000138
278.000000, 0.000147
279.000000, 0.000148
280.000000, 0.000133
281.000000, 0.000133
282.000000, 0.000134
283.000000, 0.000131
284.000000, 0.000139
285.000000, 0.000149
286.000000, 0.000144
287.000000, 0.000136
288.000000, 0.000141
289.000000, 0.000136
290.000000, 0.000135
291.000000, 0.000138
292.000000, 0.000137
293.000000, 0.000121
294.000000, 0.000124
295.000000, 0.000141
296.000000, 0.000135
297.000000, 0.000124
298.000000, 0.000139
299.000000, 0.000142
300.000000, 0.000148
301.000000, 0.000154
302.000000, 0.000136
303.000000, 0.000121
304.000000, 0.000122
305.000000, 0.000143
306.000000, 0.000128
307.000000, 0.000122
308.000000, 0.000133
309.000000, 0.000140
310.000000, 0.000137
311.000000, 0.000138
312.000000, 0.000140
313.000000, 0.000141
314.000000, 0.000136
315.000000, 0.000125
316.000000, 0.000143
317.000000, 0.000140
318.000000, 0.000131
319.000000, 0.000134
320.000000, 0.000131
321.000000, 0.000127
322.000000, 0.000108
323.000000, 0.000114
324.000000, 0.000126
325.000000, 0.000110
326.000000, 0.000091
327.000000, 0.000117
328.000000, 0.000117
329.000000, 0.000119
330.000000, 0.000133
331.000000, 0.000128
332.000000, 0.000136
333.000000, 0.000122
334.000000, 0.000121
335.000000, 0.000127
336.000000, 0.000140
337.000000, 0.000135
338.000000, 0.000123
339.000000, 0.000136
340.000000, 0.000134
341.000000, 0.000131
342.000000, 0.000113
343.000000, 0.000131
344.000000, 0.000133
345.000000, 0.000103
346.000000, 0.000101
347.000000, 0.000105
348.000000, 0.000115
349.000000, 0.000128
350.000000, 0.000134
351.000000, 0.000136
352.000000, 0.000133
353.000000, 0.000133
354.000000, 0.000139
355.000000, 0.000138
356.000000, 0.000135
357.000000, 0.000146
358.000000, 0.000138
359.000000, 0.000141
360.000000, 0.000143
361.000000, 0.000148
362.000000, 0.000138
363.000000, 0.000152
364.000000, 0.000139
365.000000, 0.000150
366.000000, 0.000142
367.000000, 0.000144
368.000000, 0.000139
369.000000, 0.000139
370.000000, 0.000141
371.000000, 0.000152
372.000000, 0.000175
373.000000, 0.000164
374.000000, 0.000156
375.000000, 0.000172
376.000000, 0.000189
377.000000, 0.000193
378.000000, 0.000139
379.000000, 0.000130
380.000000, 0.000125
381.000000, 0.000126
382.000000, 0.000138
383.000000, 0.000124
384.000000, 0.000144
385.000000, 0.000131
386.000000, 0.000132
387.000000, 0.000121
388.000000, 0.000133
389.000000, 0.000133
390.000000, 0.000126
391.000000, 0.000131
392.000000, 0.000121
393.000000, 0.000121
394.000000, 0.000123
395.000000, 0.000133
396.000000, 0.000122
397.000000, 0.000115
398.000000, 0.000126
399.000000, 0.000119
400.000000, 0.000137
401.000000, 0.000140
402.000000, 0.000131
403.000000, 0.000133
404.000000, 0.000145
405.000000, 0.000143
406.000000, 0.000142
407.000000, 0.000135
408.000000, 0.000142
409.000000, 0.000148
410.000000, 0.000138
411.000000, 0.000135
412.000000, 0.000138
413.000000, 0.000144
414.000000, 0.000116
415.000000, 0.000137
416.000000, 0.000124
417.000000, 0.000123
418.000000, 0.000114
419.000000, 0.000124
420.000000, 0.000111
421.000000, 0.000123
422.000000, 0.000136
423.000000, 0.000126
424.000000, 0.000143
425.000000, 0.000141
426.000000, 0.000130
427.000000, 0.000144
428.000000, 0.000140
429.000000, 0.000128
430.000000, 0.000126
431.000000, 0.000123
432.000000, 0.000126
433.000000, 0.000127
434.000000, 0.000117
435.000000, 0.000130
436.000000, 0.000126
437.000000, 0.000108
438.000000, 0.000133
439.000000, 0.000119
440.000000, 0.000115
441.000000, 0.000123
442.000000, 0.000130
443.000000, 0.000138
444.000000, 0.000141
445.000000, 0.000138
446.000000, 0.000120
447.000000, 0.000139
448.000000, 0.000127
449.000000, 0.000148
450.000000, 0.000127
451.000000, 0.000134
452.000000, 0.000166
453.000000, 0.000161
454.000000, 0.000152
455.000000, 0.000159
456.000000, 0.000139
457.000000, 0.000137
458.000000, 0.000139
459.000000, 0.000143
460.000000, 0.000127
461.000000, 0.000117
462.000000, 0.000118
463.000000, 0.000112
464.000000, 0.000114
465.000000, 0.000125
466.000000, 0.000100
467.000000, 0.000118
468.000000, 0.000114
469.000000, 0.000122
470.000000, 0.000101
471.000000, 0.000118
472.000000, 0.000099
473.000000, 0.000101
474.000000, 0.000127
475.000000, 0.000111
476.000000, 0.000129
477.000000, 0.000132
478.000000, 0.000126
479.000000, 0.000112
480.000000, 0.000114
481.000000, 0.000116
482.000000, 0.000119
483.000000, 0.000118
484.000000, 0.000130
485.000000, 0.000120
486.000000, 0.000123
487.000000, 0.000116
488.000000, 0.000128
489.000000, 0.000125
490.000000, 0.000115
491.000000, 0.000127
492.000000, 0.000104
493.000000, 0.000132
494.000000, 0.000128
495.000000, 0.000126
496.000000, 0.000149
497.000000, 0.000130
498.000000, 0.000117
499.000000, 0.000121
500.000000, 0.000138
501.000000, 0.000112
502.000000, 0.000140
503.000000, 0.000117
504.000000, 0.000115
505.000000, 0.000111
506.000000, 0.000111
507.000000, 0.000144
508.000000, 0.000132
509.000000, 0.000110
510.000000, 0.000113
511.000000, 0.000138
512.000000, 0.000156
513.000000, 0.000160
514.000000, 0.000157
515.000000, 0.000162
516.000000, 0.000170
517.000000, 0.000163
518.000000, 0.000167
519.000000, 0.000145
520.000000, 0.000154
521.000000, 0.000182
522.000000, 0.000174
523.000000, 0.000226
524.000000, 0.000700
525.000000, 0.003384
526.000000, 0.013936
527.000000, 0.093449
528.000000, 1.069826
529.000000, 7.069603
530.000000, 25.512793
531.000000, 55.410874
532.000000, 81.540618
533.000000, 94.004794
534.000000, 97.349337
535.000000, 97.906156
536.000000, 98.025034
537.000000, 97.609031
538.000000, 97.164138
539.000000, 96.973038
540.000000, 96.351172
541.000000, 95.662560
542.000000, 95.600244
543.000000, 96.285081
544.000000, 97.326028
545.000000, 98.112649
546.000000, 97.821428
547.000000, 97.278082
548.000000, 97.407635
549.000000, 97.556003
550.000000, 96.987552
551.000000, 96.657598
552.000000, 96.770726
553.000000, 96.656486
554.000000, 96.668059
555.000000, 97.355390
556.000000, 97.358528
557.000000, 95.802535
558.000000, 94.272495
559.000000, 94.645071
560.000000, 96.328323
561.000000, 97.610829
562.000000, 97.671082
563.000000, 97.330286
564.000000, 97.349562
565.000000, 96.972591
566.000000, 95.513113
567.000000, 93.534321
568.000000, 89.992434
569.000000, 81.165973
570.000000, 63.131484
571.000000, 36.248747
572.000000, 5.887393
573.000000, 0.512320
574.000000, 0.075723
575.000000, 0.018611
576.000000, 0.004720
577.000000, 0.000739
578.000000, 0.000206
579.000000, 0.000176
580.000000, 0.000157
581.000000, 0.000138
582.000000, 0.000140
583.000000, 0.000138
584.000000, 0.000140
585.000000, 0.000150
586.000000, 0.000126
587.000000, 0.000112
588.000000, 0.000111
589.000000, 0.000122
590.000000, 0.000118
591.000000, 0.000112
592.000000, 0.000126
593.000000, 0.000122
594.000000, 0.000110
595.000000, 0.000106
596.000000, 0.000099
597.000000, 0.000098
598.000000, 0.000116
599.000000, 0.000123
600.000000, 0.000111
601.000000, 0.000110
602.000000, 0.000125
603.000000, 0.000114
604.000000, 0.000120
605.000000, 0.000118
606.000000, 0.000118
607.000000, 0.000123
608.000000, 0.000123
609.000000, 0.000118
610.000000, 0.000119
611.000000, 0.000115
612.000000, 0.000111
613.000000, 0.000115
614.000000, 0.000109
615.000000, 0.000113
616.000000, 0.000112
617.000000, 0.000119
618.000000, 0.000118
619.000000, 0.000115
620.000000, 0.000110
621.000000, 0.000108
622.000000, 0.000120
623.000000, 0.000116
624.000000, 0.000119
625.000000, 0.000130
626.000000, 0.000120
627.000000, 0.000108
628.000000, 0.000121
629.000000, 0.000125
630.000000, 0.000118
631.000000, 0.000119
632.000000, 0.000122
633.000000, 0.000121
634.000000, 0.000114
635.000000, 0.000111
636.000000, 0.000109
637.000000, 0.000113
638.000000, 0.000126
639.000000, 0.000129
640.000000, 0.000120
641.000000, 0.000118
642.000000, 0.000114
643.000000, 0.000115
644.000000, 0.000118
645.000000, 0.000114
646.000000, 0.000118
647.000000, 0.000113
648.000000, 0.000102
649.000000, 0.000108
650.000000, 0.000104
651.000000, 0.000104
652.000000, 0.000107
653.000000, 0.000107
654.000000, 0.000113
655.000000, 0.000116
656.000000, 0.000110
657.000000, 0.000111
658.000000, 0.000124
659.000000, 0.000123
660.000000, 0.000110
661.000000, 0.000107
662.000000, 0.000110
663.000000, 0.000121
664.000000, 0.000116
665.000000, 0.000110
666.000000, 0.000120
667.000000, 0.000111
668.000000, 0.000113
669.000000, 0.000123
670.000000, 0.000120
671.000000, 0.000125
672.000000, 0.000125
673.000000, 0.000116
674.000000, 0.000116
675.000000, 0.000120
676.000000, 0.000118
677.000000, 0.000123
678.000000, 0.000122
679.000000, 0.000124
680.000000, 0.000130
681.000000, 0.000131
682.000000, 0.000134
683.000000, 0.000139
684.000000, 0.000160
685.000000, 0.000167
686.000000, 0.000163
687.000000, 0.000149
688.000000, 0.000150
689.000000, 0.000157
690.000000, 0.000165
691.000000, 0.000147
692.000000, 0.000119
693.000000, 0.000119
694.000000, 0.000128
695.000000, 0.000123
696.000000, 0.000119
697.000000, 0.000128
698.000000, 0.000127
699.000000, 0.000119
700.000000, 0.000123
701.000000, 0.000129
702.000000, 0.000126
703.000000, 0.000111
704.000000, 0.000119
705.000000, 0.000115
706.000000, 0.000117
707.000000, 0.000132
708.000000, 0.000126
709.000000, 0.000129
710.000000, 0.000120
711.000000, 0.000102
712.000000, 0.000115
713.000000, 0.000130
714.000000, 0.000123
715.000000, 0.000127
716.000000, 0.000124
717.000000, 0.000119
718.000000, 0.000129
719.000000, 0.000127
720.000000, 0.000114
721.000000, 0.000106
722.000000, 0.000115
723.000000, 0.000132
724.000000, 0.000120
725.000000, 0.000115
726.000000, 0.000121
727.000000, 0.000112
728.000000, 0.000119
729.000000, 0.000118
730.000000, 0.000129
731.000000, 0.000137
732.000000, 0.000116
733.000000, 0.000115
734.000000, 0.000116
735.000000, 0.000111
736.000000, 0.000110
737.000000, 0.000116
738.000000, 0.000115
739.000000, 0.000116
740.000000, 0.000131
741.000000, 0.000141
742.000000, 0.000126
743.000000, 0.000128
744.000000, 0.000124
745.000000, 0.000131
746.000000, 0.000115
747.000000, 0.000119
748.000000, 0.000118
749.000000, 0.000113
750.000000, 0.000105
751.000000, 0.000116
752.000000, 0.000110
753.000000, 0.000128
754.000000, 0.000126
755.000000, 0.000120
756.000000, 0.000116
757.000000, 0.000113
758.000000, 0.000110
759.000000, 0.000113
760.000000, 0.000116
761.000000, 0.000124
762.000000, 0.000146
763.000000, 0.000138
764.000000, 0.000128
765.000000, 0.000123
766.000000, 0.000117
767.000000, 0.000113
768.000000, 0.000113
769.000000, 0.000115
770.000000, 0.000114
771.000000, 0.000146
772.000000, 0.000107
773.000000, 0.000121
774.000000, 0.000103
775.000000, 0.000116
776.000000, 0.000120
777.000000, 0.000119
778.000000, 0.000138
779.000000, 0.000141
780.000000, 0.000145
781.000000, 0.000158
782.000000, 0.000161
783.000000, 0.000146
784.000000, 0.000170
785.000000, 0.000140
786.000000, 0.000142
787.000000, 0.000130
788.000000, 0.000141
789.000000, 0.000134
790.000000, 0.000153
791.000000, 0.000155
792.000000, 0.000157
793.000000, 0.000150
794.000000, 0.000131
795.000000, 0.000143
796.000000, 0.000129
797.000000, 0.000125
798.000000, 0.000104
799.000000, 0.000117
800.000000, 0.000113
801.000000, 0.000120
802.000000, 0.000137
803.000000, 0.000146
804.000000, 0.000131
805.000000, 0.000120
806.000000, 0.000128
807.000000, 0.000118
808.000000, 0.000121
809.000000, 0.000118
810.000000, 0.000121
811.000000, 0.000126
812.000000, 0.000128
813.000000, 0.000127
814.000000, 0.000105
815.000000, 0.000127
816.000000, 0.000111
817.000000, 0.000127
818.000000, 0.000116
819.000000, 0.000140
820.000000, 0.000123
821.000000, 0.000098
822.000000, 0.000138
823.000000, 0.000108
824.000000, 0.000132
825.000000, 0.000128
826.000000, 0.000149
827.000000, 0.000108
828.000000, 0.000111
829.000000, 0.000145
830.000000, 0.000169
831.000000, 0.000150
832.000000, 0.000190
833.000000, 0.000165
834.000000, 0.000179
835.000000, 0.000189
836.000000, 0.000169
837.000000, 0.000191
838.000000, 0.000159
839.000000, 0.000156
840.000000, 0.000185
841.000000, 0.000108
842.000000, 0.000184
843.000000, 0.000234
844.000000, 0.000147
845.000000, 0.000208
846.000000, 0.000175
847.000000, 0.000120
848.000000, 0.000185
849.000000, 0.000205
850.000000, 0.000191
851.000000, 0.000180
852.000000, 0.000243
853.000000, 0.000179
854.000000, 0.000204
855.000000, 0.000155
856.000000, 0.000142
857.000000, 0.000134
858.000000, 0.000140
859.000000, 0.000161
860.000000, 0.000137
861.000000, 0.000145
862.000000, 0.000126
863.000000, 0.000201
864.000000, 0.000214
865.000000, 0.000275
866.000000, 0.000214
867.000000, 0.000275
868.000000, 0.000137
869.000000, 0.000203
870.000000, 0.000157
871.000000, 0.000213
872.000000, 0.000152
873.000000, 0.000212
874.000000, 0.000139
875.000000, 0.000163
876.000000, 0.000120
877.000000, 0.000229
878.000000, 0.000145
879.000000, 0.000235
880.000000, 0.000198
881.000000, 0.000269
882.000000, 0.000193
883.000000, 0.000292
884.000000, 0.000198
885.000000, 0.000277
886.000000, 0.000204
887.000000, 0.000244
888.000000, 0.000152
889.000000, 0.000201
890.000000, 0.000132
891.000000, 0.000218
892.000000, 0.000187
893.000000, 0.000218
894.000000, 0.000193
895.000000, 0.000181
896.000000, 0.000137
897.000000, 0.000229
898.000000, 0.000194
899.000000, 0.000196
900.000000, 0.000188
901.000000, 0.000241
902.000000, 0.000144
903.000000, 0.000231
904.000000, 0.000196
905.000000, 0.000306
906.000000, 0.000225
907.000000, 0.000327
908.000000, 0.000224
909.000000, 0.000294
910.000000, 0.000205
911.000000, 0.000278
912.000000, 0.000191
913.000000, 0.000291
914.000000, 0.000222
915.000000, 0.000281
916.000000, 0.000193
917.000000, 0.000278
918.000000, 0.000235
919.000000, 0.000347
920.000000, 0.000274
921.000000, 0.000367
922.000000, 0.000299
923.000000, 0.000310
924.000000, 0.000218
925.000000, 0.000337
926.000000, 0.000250
927.000000, 0.000305
928.000000, 0.000261
929.000000, 0.000390
930.000000, 0.000253
931.000000, 0.000297
932.000000, 0.000208
933.000000, 0.000271
934.000000, 0.000184
935.000000, 0.000257
936.000000, 0.000214
937.000000, 0.000322
938.000000, 0.000216
939.000000, 0.000297
940.000000, 0.000213
941.000000, 0.000304
942.000000, 0.000257
943.000000, 0.000353
944.000000, 0.000244
945.000000, 0.000290
946.000000, 0.000208
947.000000, 0.000217
948.000000, 0.000202
949.000000, 0.000269
950.000000, 0.000226
951.000000, 0.000283
952.000000, 0.000279
953.000000, 0.000324
954.000000, 0.000244
955.000000, 0.000295
956.000000, 0.000271
957.000000, 0.000315
958.000000, 0.000279
959.000000, 0.000315
960.000000, 0.000260
961.000000, 0.000287
962.000000, 0.000163
963.000000, 0.000176
964.000000, 0.000120
965.000000, 0.000153
966.000000, 0.000154
967.000000, 0.000266
968.000000, 0.000229
969.000000, 0.000436
970.000000, 0.000397
971.000000, 0.000403
972.000000, 0.000350
973.000000, 0.000382
974.000000, 0.000186
975.000000, 0.000230
976.000000, 0.000216
977.000000, 0.000222
978.000000, 0.000142
979.000000, 0.000282
980.000000, 0.000207
981.000000, 0.000209
982.000000, 0.000216
983.000000, 0.000340
984.000000, 0.000294
985.000000, 0.000377
986.000000, 0.000315
987.000000, 0.000265
988.000000, 0.000144
989.000000, 0.000117
990.000000, 0.000084
991.000000, 0.000101
992.000000, 0.000105
993.000000, 0.000188
994.000000, 0.000243
995.000000, 0.000343
996.000000, 0.000306
997.000000, 0.000337
998.000000, 0.000282
999.000000, 0.000267
1000.000000, 0.000252
1001.000000, 0.000318
1002.000000, 0.000303
1003.000000, 0.000410
1004.000000, 0.000461
1005.000000, 0.000489
1006.000000, 0.000438
1007.000000, 0.000409
1008.000000, 0.000387
1009.000000, 0.000418
1010.000000, 0.000397
1011.000000, 0.000427
1012.000000, 0.000440
1013.000000, 0.000343
1014.000000, 0.000278
1015.000000, 0.000273
1016.000000, 0.000279
1017.000000, 0.000296
1018.000000, 0.000272
1019.000000, 0.000245
1020.000000, 0.000264
1021.000000, 0.000265
1022.000000, 0.000297
1023.000000, 0.000435
1024.000000, 0.000483
1025.000000, 0.000316
1026.000000, 0.000288
1027.000000, 0.000258
1028.000000, 0.000222
1029.000000, 0.000232
1030.000000, 0.000372
1031.000000, 0.000373
1032.000000, 0.000372
1033.000000, 0.000383
1034.000000, 0.000389
1035.000000, 0.000291
1036.000000, 0.000232
1037.000000, 0.000170
1038.000000, 0.000184
1039.000000, 0.000194
1040.000000, 0.000240
1041.000000, 0.000298
1042.000000, 0.000365
1043.000000, 0.000321
1044.000000, 0.000333
1045.000000, 0.000305
1046.000000, 0.000359
1047.000000, 0.000371
1048.000000, 0.000384
1049.000000, 0.000323
1050.000000, 0.000312
1051.000000, 0.000273
1052.000000, 0.000289
1053.000000, 0.000198
1054.000000, 0.000224
1055.000000, 0.000270
1056.000000, 0.000303
1057.000000, 0.000187
1058.000000, 0.000281
1059.000000, 0.000236
1060.000000, 0.000223
1061.000000, 0.000190
1062.000000, 0.000331
1063.000000, 0.000251
1064.000000, 0.000299
1065.000000, 0.000302
1066.000000, 0.000308
1067.000000, 0.000225
1068.000000, 0.000231
1069.000000, 0.000142
1070.000000, 0.000152
1071.000000, 0.000151
1072.000000, 0.000210
1073.000000, 0.000255
1074.000000, 0.000374
1075.000000, 0.000258
1076.000000, 0.000295
1077.000000, 0.000279
1078.000000, 0.000338
1079.000000, 0.000297
1080.000000, 0.000387
1081.000000, 0.000324
1082.000000, 0.000351
1083.000000, 0.000252
1084.000000, 0.000286
1085.000000, 0.000219
1086.000000, 0.000282
1087.000000, 0.000280
1088.000000, 0.000346
1089.000000, 0.000287
1090.000000, 0.000391
1091.000000, 0.000256
1092.000000, 0.000269
1093.000000, 0.000235
1094.000000, 0.000317
1095.000000, 0.000234
1096.000000, 0.000274
1097.000000, 0.000192
1098.000000, 0.000190
1099.000000, 0.000163
1100.000000, 0.000225
1101.000000, 0.000219
1102.000000, 0.000302
1103.000000, 0.000314
1104.000000, 0.000395
1105.000000, 0.000361
1106.000000, 0.000501
1107.000000, 0.000387
1108.000000, 0.000412
1109.000000, 0.000335
1110.000000, 0.000384
1111.000000, 0.000298
1112.000000, 0.000379
1113.000000, 0.000357
1114.000000, 0.000457
1115.000000, 0.000400
1116.000000, 0.000513
1117.000000, 0.000434
1118.000000, 0.000518
1119.000000, 0.000433
1120.000000, 0.000530
1121.000000, 0.000405
1122.000000, 0.000440
1123.000000, 0.000306
1124.000000, 0.000342
1125.000000, 0.000220
1126.000000, 0.000265
1127.000000, 0.000204
1128.000000, 0.000274
1129.000000, 0.000193
1130.000000, 0.000280
1131.000000, 0.000194
1132.000000, 0.000275
1133.000000, 0.000205
1134.000000, 0.000292
1135.000000, 0.000202
1136.000000, 0.000279
1137.000000, 0.000197
1138.000000, 0.000312
1139.000000, 0.000219
1140.000000, 0.000303
1141.000000, 0.000219
1142.000000, 0.000291
1143.000000, 0.000249
1144.000000, 0.000313
1145.000000, 0.000244
1146.000000, 0.000355
1147.000000, 0.000268
1148.000000, 0.000259
1149.000000, 0.000190
1150.000000, 0.000285
1151.000000, 0.000233
1152.000000, 0.000336
1153.000000, 0.000257
1154.000000, 0.000431
1155.000000, 0.000278
1156.000000, 0.000345
1157.000000, 0.000239
1158.000000, 0.000387
1159.000000, 0.000250
1160.000000, 0.000379
1161.000000, 0.000256
1162.000000, 0.000390
1163.000000, 0.000241
1164.000000, 0.000373
1165.000000, 0.000235
1166.000000, 0.000337
1167.000000, 0.000222
1168.000000, 0.000324
1169.000000, 0.000209
1170.000000, 0.000274
1171.000000, 0.000237
1172.000000, 0.000344
1173.000000, 0.000235
1174.000000, 0.000392
1175.000000, 0.000299
1176.000000, 0.000341
1177.000000, 0.000235
1178.000000, 0.000349
1179.000000, 0.000209
1180.000000, 0.000308
1181.000000, 0.000187
1182.000000, 0.000286
1183.000000, 0.000159
1184.000000, 0.000223
1185.000000, 0.000151
1186.000000, 0.000252
1187.000000, 0.000203
1188.000000, 0.000247
1189.000000, 0.000176
1190.000000, 0.000270
1191.000000, 0.000210
1192.000000, 0.000254
1193.000000, 0.000254
1194.000000, 0.000426
1195.000000, 0.000202
1196.000000, 0.000291
1197.000000, 0.000195
1198.000000, 0.000241
1199.000000, 0.000312
1200.000000, 0.000250
