# Wavelength  (nm), Transmission (%)
250.000000, 1.210128
251.000000, 1.166640
252.000000, 1.298512
253.000000, 1.298602
254.000000, 0.027753
255.000000, 1.303445
256.000000, 1.695944
257.000000, 1.366446
258.000000, 0.840327
259.000000, 1.716272
260.000000, 1.323448
261.000000, 0.859549
262.000000, 0.438022
263.000000, 0.598149
264.000000, 2.248578
265.000000, 1.973696
266.000000, 1.433044
267.000000, 0.957651
268.000000, 1.637674
269.000000, 2.138966
270.000000, 0.451044
271.000000, 1.894355
272.000000, 1.238091
273.000000, 1.619567
274.000000, 1.485962
275.000000, 0.994198
276.000000, 2.196334
277.000000, 1.980940
278.000000, 1.791021
279.000000, 1.197417
280.000000, 1.254644
281.000000, 1.556063
282.000000, 2.744092
283.000000, 1.946662
284.000000, 1.220109
285.000000, 1.808948
286.000000, 1.535033
287.000000, 1.638150
288.000000, 1.234751
289.000000, 0.194091
290.000000, 1.663944
291.000000, 0.882023
292.000000, 1.599608
293.000000, 1.950038
294.000000, 1.216029
295.000000, 0.188377
296.000000, 2.547502
297.000000, 1.257278
298.000000, 0.899252
299.000000, 1.558828
300.000000, 0.636930
301.000000, 1.706661
302.000000, 2.980984
303.000000, 0.875145
304.000000, 0.620671
305.000000, 1.436590
306.000000, 2.330799
307.000000, 2.260843
308.000000, 0.722001
309.000000, 0.947892
310.000000, 2.109742
311.000000, 3.114060
312.000000, 4.462908
313.000000, 6.718836
314.000000, 8.697576
315.000000, 10.795235
316.000000, 13.974100
317.000000, 17.585324
318.000000, 19.999453
319.000000, 23.633913
320.000000, 24.066159
321.000000, 24.016101
322.000000, 24.888851
323.000000, 23.555867
324.000000, 23.209768
325.000000, 23.285318
326.000000, 22.918437
327.000000, 24.543639
328.000000, 23.067788
329.000000, 22.700214
330.000000, 20.330889
331.000000, 18.944084
332.000000, 16.849842
333.000000, 14.392243
334.000000, 14.301119
335.000000, 14.394146
336.000000, 15.675732
337.000000, 17.804667
338.000000, 19.851944
339.000000, 23.478630
340.000000, 23.607449
341.000000, 25.182609
342.000000, 24.274022
343.000000, 26.072281
344.000000, 25.955736
345.000000, 27.038791
346.000000, 27.128752
347.000000, 27.942324
348.000000, 28.794016
349.000000, 29.020353
350.000000, 28.987894
351.000000, 29.094624
352.000000, 30.843442
353.000000, 31.654726
354.000000, 31.114004
355.000000, 30.635661
356.000000, 30.895631
357.000000, 32.519566
358.000000, 35.044913
359.000000, 37.732765
360.000000, 38.585554
361.000000, 39.005556
362.000000, 38.680849
363.000000, 37.747098
364.000000, 36.716646
365.000000, 34.397158
366.000000, 31.832808
367.000000, 28.890785
368.000000, 24.915910
369.000000, 21.990313
370.000000, 20.105608
371.000000, 19.431833
372.000000, 19.974846
373.000000, 20.822670
374.000000, 21.055034
375.000000, 20.440798
376.000000, 17.884193
377.000000, 14.959379
378.000000, 10.973590
379.000000, 7.363104
380.000000, 4.450948
381.000000, 2.513865
382.000000, 1.351044
383.000000, 0.829033
384.000000, 0.654894
385.000000, 0.537228
386.000000, 0.548659
387.000000, 0.414867
388.000000, 0.494707
389.000000, 0.499155
390.000000, 0.394845
391.000000, 0.419530
392.000000, 0.360896
393.000000, 0.185023
394.000000, 0.244413
395.000000, 0.099262
396.000000, 0.200688
397.000000, 0.211846
398.000000, 0.062989
399.000000, 0.039708
400.000000, 0.140435
401.000000, 0.139401
402.000000, 0.139126
403.000000, 0.110797
404.000000, 0.145033
405.000000, 0.130394
406.000000, 0.092543
407.000000, 0.254211
408.000000, 0.152469
409.000000, 0.048198
410.000000, 0.027409
411.000000, 0.259632
412.000000, 0.192094
413.000000, 0.088741
414.000000, 0.244809
415.000000, 0.245663
416.000000, 0.133129
417.000000, 0.121315
418.000000, 0.184844
419.000000, 0.114106
420.000000, 0.097511
421.000000, 0.178918
422.000000, 0.125991
423.000000, 0.062359
424.000000, 0.085641
425.000000, 0.080676
426.000000, 0.103120
427.000000, 0.060516
428.000000, 0.120877
429.000000, 0.056521
430.000000, 0.099289
431.000000, 0.152748
432.000000, 0.062518
433.000000, 0.071637
434.000000, 0.064376
435.000000, 0.062720
436.000000, 0.081822
437.000000, 0.083783
438.000000, 0.079615
439.000000, 0.022168
440.000000, 0.037073
441.000000, 0.119466
442.000000, 0.068065
443.000000, 0.027396
444.000000, 0.041997
445.000000, 0.068380
446.000000, 0.017791
447.000000, 0.083526
448.000000, 0.046785
449.000000, 0.048761
450.000000, 0.027286
451.000000, 0.034795
452.000000, 0.053940
453.000000, 0.079335
454.000000, 0.076437
455.000000, 0.076032
456.000000, 0.070493
457.000000, 0.031783
458.000000, 0.046772
459.000000, 0.047323
460.000000, 0.070858
461.000000, 0.039035
462.000000, 0.060723
463.000000, 0.020261
464.000000, 0.042247
465.000000, 0.017939
466.000000, 0.011753
467.000000, 0.013621
468.000000, 0.040670
469.000000, 0.049218
470.000000, 0.051854
471.000000, 0.027774
472.000000, 0.047596
473.000000, 0.050485
474.000000, 0.023097
475.000000, 0.013924
476.000000, 0.047577
477.000000, 0.008891
478.000000, 0.050015
479.000000, 0.027910
480.000000, 0.048340
481.000000, 0.038000
482.000000, 0.024540
483.000000, 0.025957
484.000000, 0.021342
485.000000, 0.036018
486.000000, 0.044175
487.000000, 0.054900
488.000000, 0.040613
489.000000, 0.023321
490.000000, 0.038279
491.000000, 0.070131
492.000000, 0.039539
493.000000, 0.034014
494.000000, 0.040582
495.000000, 0.049715
496.000000, 0.029197
497.000000, 0.014289
498.000000, 0.036300
499.000000, 0.026785
500.000000, 0.041809
501.000000, 0.045991
502.000000, 0.051376
503.000000, 0.055170
504.000000, 0.051279
505.000000, 0.050609
506.000000, 0.047268
507.000000, 0.058908
508.000000, 0.102817
509.000000, 0.167907
510.000000, 0.278759
511.000000, 0.334207
512.000000, 0.380334
513.000000, 0.348140
514.000000, 0.269319
515.000000, 0.192454
516.000000, 0.120890
517.000000, 0.085590
518.000000, 0.065396
519.000000, 0.040496
520.000000, 0.041436
521.000000, 0.048818
522.000000, 0.060014
523.000000, 0.047651
524.000000, 0.056112
525.000000, 0.096444
526.000000, 0.202706
527.000000, 0.423834
528.000000, 0.695038
529.000000, 1.027961
530.000000, 1.372393
531.000000, 1.683997
532.000000, 1.969859
533.000000, 2.260720
534.000000, 2.512639
535.000000, 2.774732
536.000000, 3.197702
537.000000, 4.169793
538.000000, 6.192057
539.000000, 9.624633
540.000000, 14.440865
541.000000, 20.439628
542.000000, 27.038000
543.000000, 33.510962
544.000000, 39.104081
545.000000, 43.573512
546.000000, 46.636394
547.000000, 48.545246
548.000000, 49.879268
549.000000, 51.174276
550.000000, 52.892154
551.000000, 55.217931
552.000000, 58.411557
553.000000, 62.406032
554.000000, 67.082339
555.000000, 71.978987
556.000000, 76.629282
557.000000, 80.739186
558.000000, 84.100200
559.000000, 86.734317
560.000000, 88.801811
561.000000, 90.514959
562.000000, 91.933341
563.000000, 92.971181
564.000000, 93.792312
565.000000, 94.352862
566.000000, 94.811554
567.000000, 95.185518
568.000000, 95.636795
569.000000, 96.042118
570.000000, 96.359459
571.000000, 96.568153
572.000000, 96.620559
573.000000, 96.691904
574.000000, 96.771219
575.000000, 96.927116
576.000000, 97.145163
577.000000, 97.342202
578.000000, 97.509647
579.000000, 97.581909
580.000000, 97.571430
581.000000, 97.526659
582.000000, 97.566651
583.000000, 97.679297
584.000000, 97.819617
585.000000, 97.966048
586.000000, 98.124839
587.000000, 98.209084
588.000000, 98.219044
589.000000, 98.179055
590.000000, 98.146786
591.000000, 98.138466
592.000000, 98.156372
593.000000, 98.182038
594.000000, 98.239247
595.000000, 98.245818
596.000000, 98.217089
597.000000, 98.231888
598.000000, 98.251546
599.000000, 98.311969
600.000000, 98.418278
601.000000, 98.522169
602.000000, 98.659618
603.000000, 98.730117
604.000000, 98.753863
605.000000, 98.700563
606.000000, 98.595363
607.000000, 98.488544
608.000000, 98.453698
609.000000, 98.419538
610.000000, 98.417362
611.000000, 98.498165
612.000000, 98.554499
613.000000, 98.623099
614.000000, 98.672585
615.000000, 98.667443
616.000000, 98.628399
617.000000, 98.610679
618.000000, 98.593590
619.000000, 98.609197
620.000000, 98.675318
621.000000, 98.717321
622.000000, 98.775765
623.000000, 98.847152
624.000000, 98.855291
625.000000, 98.894784
626.000000, 98.841923
627.000000, 98.807359
628.000000, 98.762063
629.000000, 98.736937
630.000000, 98.685014
631.000000, 98.652160
632.000000, 98.636611
633.000000, 98.608732
634.000000, 98.553298
635.000000, 98.535215
636.000000, 98.512488
637.000000, 98.504907
638.000000, 98.509757
639.000000, 98.544548
640.000000, 98.595256
641.000000, 98.659152
642.000000, 98.717818
643.000000, 98.786840
644.000000, 98.818758
645.000000, 98.838413
646.000000, 98.775328
647.000000, 98.731019
648.000000, 98.690752
649.000000, 98.582690
650.000000, 98.524652
651.000000, 98.487493
652.000000, 98.470360
653.000000, 98.457178
654.000000, 98.451261
655.000000, 98.452037
656.000000, 98.444794
657.000000, 98.448610
658.000000, 98.427377
659.000000, 98.463536
660.000000, 98.418406
661.000000, 98.414095
662.000000, 98.377389
663.000000, 98.416992
664.000000, 98.440462
665.000000, 98.410320
666.000000, 98.466513
667.000000, 98.448444
668.000000, 98.411466
669.000000, 98.374902
670.000000, 98.322630
671.000000, 98.297766
672.000000, 98.238051
673.000000, 98.181063
674.000000, 98.184030
675.000000, 98.217911
676.000000, 98.245862
677.000000, 98.261173
678.000000, 98.313931
679.000000, 98.409864
680.000000, 98.403080
681.000000, 98.426374
682.000000, 98.426844
683.000000, 98.424548
684.000000, 98.398673
685.000000, 98.343127
686.000000, 98.345587
687.000000, 98.280762
688.000000, 98.282118
689.000000, 98.260833
690.000000, 98.229536
691.000000, 98.241167
692.000000, 98.264365
693.000000, 98.242165
694.000000, 98.268676
695.000000, 98.220053
696.000000, 98.190742
697.000000, 98.168921
698.000000, 98.151381
699.000000, 98.175170
700.000000, 98.164774
701.000000, 98.208707
702.000000, 98.269579
703.000000, 98.284203
704.000000, 98.383567
705.000000, 98.444722
706.000000, 98.466618
707.000000, 98.502464
708.000000, 98.503878
709.000000, 98.473850
710.000000, 98.429901
711.000000, 98.394433
712.000000, 98.365956
713.000000, 98.331847
714.000000, 98.281581
715.000000, 98.259927
716.000000, 98.256050
717.000000, 98.292216
718.000000, 98.305711
719.000000, 98.292610
720.000000, 98.356222
721.000000, 98.327498
722.000000, 98.350064
723.000000, 98.358068
724.000000, 98.356120
725.000000, 98.385375
726.000000, 98.356787
727.000000, 98.368057
728.000000, 98.414126
729.000000, 98.442805
730.000000, 98.501142
731.000000, 98.573502
732.000000, 98.583985
733.000000, 98.696676
734.000000, 98.718531
735.000000, 98.697183
736.000000, 98.753573
737.000000, 98.701144
738.000000, 98.679303
739.000000, 98.646560
740.000000, 98.596986
741.000000, 98.571903
742.000000, 98.522310
743.000000, 98.485444
744.000000, 98.523533
745.000000, 98.509474
746.000000, 98.556534
747.000000, 98.589793
748.000000, 98.668750
749.000000, 98.731245
750.000000, 98.763410
751.000000, 98.810551
752.000000, 98.815759
753.000000, 98.835393
754.000000, 98.815405
755.000000, 98.824513
756.000000, 98.730377
757.000000, 98.708846
758.000000, 98.703488
759.000000, 98.652561
760.000000, 98.634586
761.000000, 98.651091
762.000000, 98.620145
763.000000, 98.671673
764.000000, 98.728371
765.000000, 98.757291
766.000000, 98.805300
767.000000, 98.829591
768.000000, 98.809923
769.000000, 98.836719
770.000000, 98.809307
771.000000, 98.766806
772.000000, 98.718613
773.000000, 98.663839
774.000000, 98.596798
775.000000, 98.515066
776.000000, 98.478130
777.000000, 98.464175
778.000000, 98.419395
779.000000, 98.452019
780.000000, 98.439628
781.000000, 98.498815
782.000000, 98.549631
783.000000, 98.612199
784.000000, 98.625422
785.000000, 98.741271
786.000000, 98.731557
787.000000, 98.733051
788.000000, 98.703853
789.000000, 98.699974
790.000000, 98.607057
791.000000, 98.538152
792.000000, 98.442753
793.000000, 98.342994
794.000000, 98.250640
795.000000, 98.173906
796.000000, 98.064166
797.000000, 97.979986
798.000000, 97.940768
799.000000, 97.940533
800.000000, 97.886174
801.000000, 97.874503
802.000000, 97.820689
803.000000, 97.839962
804.000000, 97.809369
805.000000, 97.802839
806.000000, 97.776119
807.000000, 97.718742
808.000000, 97.684822
809.000000, 97.572787
810.000000, 97.515087
811.000000, 97.434040
812.000000, 97.377418
813.000000, 97.287609
814.000000, 97.228670
815.000000, 97.170125
816.000000, 97.098343
817.000000, 97.098085
818.000000, 97.016179
819.000000, 96.990110
820.000000, 96.942600
821.000000, 96.913511
822.000000, 96.849364
823.000000, 96.781815
824.000000, 96.724936
825.000000, 96.632520
826.000000, 96.523447
827.000000, 96.420289
828.000000, 96.262849
829.000000, 96.149228
830.000000, 96.012950
831.000000, 95.845213
832.000000, 95.748537
833.000000, 95.582249
834.000000, 95.461985
835.000000, 95.383914
836.000000, 95.325261
837.000000, 95.256320
838.000000, 95.170693
839.000000, 95.132662
840.000000, 95.075914
841.000000, 95.011567
842.000000, 94.954364
843.000000, 94.885644
844.000000, 94.804005
845.000000, 94.673995
846.000000, 94.579739
847.000000, 94.404261
848.000000, 94.207731
849.000000, 93.982421
850.000000, 93.747213
851.000000, 93.453589
852.000000, 93.142595
853.000000, 92.805318
854.000000, 92.413406
855.000000, 92.012077
856.000000, 91.589057
857.000000, 91.099726
858.000000, 90.616650
859.000000, 90.126770
860.000000, 89.566963
861.000000, 89.010816
862.000000, 88.478881
863.000000, 87.901328
864.000000, 87.355581
865.000000, 86.828133
866.000000, 86.286693
867.000000, 85.798965
868.000000, 85.367712
869.000000, 84.990221
870.000000, 84.629743
871.000000, 84.352009
872.000000, 84.128401
873.000000, 83.983846
874.000000, 83.897931
875.000000, 83.874863
876.000000, 83.909625
877.000000, 84.025897
878.000000, 84.163597
879.000000, 84.362084
880.000000, 84.575805
881.000000, 84.817328
882.000000, 85.056133
883.000000, 85.319839
884.000000, 85.572108
885.000000, 85.829052
886.000000, 86.043510
887.000000, 86.239205
888.000000, 86.402504
889.000000, 86.544715
890.000000, 86.649698
891.000000, 86.729678
892.000000, 86.786475
893.000000, 86.829581
894.000000, 86.859641
895.000000, 86.889346
896.000000, 86.892689
897.000000, 86.894925
898.000000, 86.913854
899.000000, 86.904692
900.000000, 86.880973
901.000000, 86.839164
902.000000, 86.785727
903.000000, 86.673242
904.000000, 86.529531
905.000000, 86.296732
906.000000, 86.031751
907.000000, 85.651382
908.000000, 85.184304
909.000000, 84.635283
910.000000, 83.986616
911.000000, 83.230952
912.000000, 82.425659
913.000000, 81.583891
914.000000, 80.654675
915.000000, 79.723854
916.000000, 78.806468
917.000000, 77.877929
918.000000, 77.018844
919.000000, 76.243967
920.000000, 75.542925
921.000000, 74.935775
922.000000, 74.480529
923.000000, 74.115632
924.000000, 73.886786
925.000000, 73.806646
926.000000, 73.849642
927.000000, 74.006977
928.000000, 74.284504
929.000000, 74.678567
930.000000, 75.161595
931.000000, 75.707781
932.000000, 76.321166
933.000000, 76.991014
934.000000, 77.676806
935.000000, 78.367453
936.000000, 79.042411
937.000000, 79.680891
938.000000, 80.230008
939.000000, 80.724851
940.000000, 81.122724
941.000000, 81.407676
942.000000, 81.560365
943.000000, 81.628569
944.000000, 81.560639
945.000000, 81.385763
946.000000, 81.086365
947.000000, 80.737588
948.000000, 80.294502
949.000000, 79.786474
950.000000, 79.284749
951.000000, 78.767241
952.000000, 78.237609
953.000000, 77.747364
954.000000, 77.272647
955.000000, 76.861891
956.000000, 76.477301
957.000000, 76.175479
958.000000, 75.888483
959.000000, 75.664200
960.000000, 75.505180
961.000000, 75.368488
962.000000, 75.252388
963.000000, 75.188675
964.000000, 75.122423
965.000000, 75.102388
966.000000, 75.063430
967.000000, 75.026247
968.000000, 74.987390
969.000000, 74.947169
970.000000, 74.901368
971.000000, 74.847463
972.000000, 74.777151
973.000000, 74.708666
974.000000, 74.627375
975.000000, 74.562625
976.000000, 74.500149
977.000000, 74.450300
978.000000, 74.415959
979.000000, 74.418265
980.000000, 74.437580
981.000000, 74.473332
982.000000, 74.554175
983.000000, 74.656556
984.000000, 74.790705
985.000000, 74.939442
986.000000, 75.111225
987.000000, 75.301023
988.000000, 75.486626
989.000000, 75.662616
990.000000, 75.812778
991.000000, 75.928113
992.000000, 76.028623
993.000000, 76.051269
994.000000, 76.018881
995.000000, 75.901930
996.000000, 75.712214
997.000000, 75.438378
998.000000, 75.094807
999.000000, 74.643124
1000.000000, 74.112357
1001.000000, 73.550883
1002.000000, 72.904156
1003.000000, 72.198525
1004.000000, 71.506523
1005.000000, 70.775429
1006.000000, 70.030372
1007.000000, 69.335024
1008.000000, 68.672666
1009.000000, 68.024067
1010.000000, 67.473234
1011.000000, 66.960091
1012.000000, 66.530137
1013.000000, 66.184087
1014.000000, 65.924592
1015.000000, 65.735755
1016.000000, 65.650482
1017.000000, 65.642427
1018.000000, 65.707470
1019.000000, 65.867123
1020.000000, 66.078661
1021.000000, 66.366998
1022.000000, 66.709881
1023.000000, 67.082260
1024.000000, 67.519902
1025.000000, 68.005073
1026.000000, 68.479397
1027.000000, 68.957230
1028.000000, 69.475073
1029.000000, 69.962331
1030.000000, 70.432619
1031.000000, 70.907318
1032.000000, 71.329992
1033.000000, 71.710608
1034.000000, 72.058794
1035.000000, 72.358292
1036.000000, 72.594517
1037.000000, 72.787249
1038.000000, 72.925559
1039.000000, 73.015241
1040.000000, 73.076718
1041.000000, 73.070325
1042.000000, 73.047610
1043.000000, 72.983459
1044.000000, 72.901240
1045.000000, 72.811115
1046.000000, 72.701865
1047.000000, 72.599300
1048.000000, 72.499490
1049.000000, 72.400316
1050.000000, 71.947595
1051.000000, 71.873379
1052.000000, 71.802825
1053.000000, 71.734711
1054.000000, 71.666517
1055.000000, 71.600797
1056.000000, 71.531474
1057.000000, 71.450267
1058.000000, 71.359760
1059.000000, 71.246006
1060.000000, 71.112704
1061.000000, 70.965103
1062.000000, 70.778557
1063.000000, 70.559045
1064.000000, 70.317211
1065.000000, 70.048738
1066.000000, 69.720306
1067.000000, 69.397704
1068.000000, 69.018836
1069.000000, 68.614064
1070.000000, 68.207794
1071.000000, 67.804724
1072.000000, 67.335268
1073.000000, 66.881466
1074.000000, 66.434290
1075.000000, 65.992881
1076.000000, 65.579340
1077.000000, 65.197849
1078.000000, 64.817724
1079.000000, 64.521677
1080.000000, 64.222774
1081.000000, 64.003448
1082.000000, 63.817249
1083.000000, 63.679559
1084.000000, 63.597460
1085.000000, 63.558056
1086.000000, 63.574817
1087.000000, 63.648749
1088.000000, 63.774221
1089.000000, 63.958652
1090.000000, 64.181495
1091.000000, 64.474200
1092.000000, 64.772674
1093.000000, 65.097306
1094.000000, 65.492334
1095.000000, 65.869822
1096.000000, 66.279406
1097.000000, 66.702057
1098.000000, 67.107331
1099.000000, 67.520650
1100.000000, 67.900134
1101.000000, 68.354175
1102.000000, 68.651273
1103.000000, 69.039829
1104.000000, 69.332903
1105.000000, 69.592825
1106.000000, 69.821597
1107.000000, 70.008205
1108.000000, 70.128203
1109.000000, 70.248310
1110.000000, 70.251289
1111.000000, 70.283546
1112.000000, 70.230631
1113.000000, 70.146987
1114.000000, 70.087896
1115.000000, 69.909813
1116.000000, 69.751996
1117.000000, 69.615032
1118.000000, 69.422984
1119.000000, 69.283727
1120.000000, 69.009805
1121.000000, 68.856404
1122.000000, 68.691581
1123.000000, 68.514773
1124.000000, 68.337703
1125.000000, 68.220463
1126.000000, 68.034267
1127.000000, 68.007642
1128.000000, 67.912894
1129.000000, 67.761976
1130.000000, 67.786451
1131.000000, 67.737214
1132.000000, 67.632325
1133.000000, 67.650587
1134.000000, 67.707146
1135.000000, 67.599431
1136.000000, 67.654270
1137.000000, 67.645561
1138.000000, 67.642770
1139.000000, 67.649261
1140.000000, 67.637221
1141.000000, 67.624132
1142.000000, 67.610258
1143.000000, 67.552939
1144.000000, 67.499701
1145.000000, 67.477535
1146.000000, 67.384924
1147.000000, 67.272613
1148.000000, 67.243932
1149.000000, 67.133885
1150.000000, 67.014268
1151.000000, 66.952294
1152.000000, 66.811168
1153.000000, 66.711378
1154.000000, 66.636512
1155.000000, 66.532552
1156.000000, 66.419471
1157.000000, 66.417571
1158.000000, 66.382451
1159.000000, 66.290076
1160.000000, 66.325604
1161.000000, 66.338271
1162.000000, 66.361034
1163.000000, 66.418893
1164.000000, 66.500941
1165.000000, 66.589752
1166.000000, 66.726414
1167.000000, 66.890453
1168.000000, 67.030125
1169.000000, 67.203772
1170.000000, 67.420853
1171.000000, 67.611581
1172.000000, 67.897944
1173.000000, 68.078580
1174.000000, 68.271053
1175.000000, 68.523302
1176.000000, 68.761757
1177.000000, 68.999289
1178.000000, 69.154705
1179.000000, 69.347790
1180.000000, 69.500594
1181.000000, 69.659790
1182.000000, 69.773731
1183.000000, 69.884024
1184.000000, 69.898026
1185.000000, 69.912280
1186.000000, 69.884212
1187.000000, 69.830682
1188.000000, 69.726723
1189.000000, 69.606598
1190.000000, 69.481477
1191.000000, 69.210362
1192.000000, 69.029448
1193.000000, 68.801715
1194.000000, 68.542239
1195.000000, 68.269657
1196.000000, 67.960123
1197.000000, 67.668020
1198.000000, 67.385162
1199.000000, 67.086318
1200.000000, 66.850165
1201.000000, 66.531747
1202.000000, 66.282668
1203.000000, 66.046846
1204.000000, 65.823001
1205.000000, 65.645546
1206.000000, 65.436337
1207.000000, 65.321354
1208.000000, 65.165367
1209.000000, 65.085779
1210.000000, 65.029259
1211.000000, 65.021020
1212.000000, 65.009795
1213.000000, 65.039670
1214.000000, 65.104379
1215.000000, 65.184553
1216.000000, 65.275895
1217.000000, 65.451815
1218.000000, 65.634556
1219.000000, 65.771967
1220.000000, 65.997089
1221.000000, 66.218505
1222.000000, 66.443638
1223.000000, 66.682458
1224.000000, 66.967278
1225.000000, 67.103349
1226.000000, 67.433229
1227.000000, 67.712552
1228.000000, 67.955994
1229.000000, 68.230340
1230.000000, 68.433339
1231.000000, 68.650341
1232.000000, 68.822789
1233.000000, 69.038571
1234.000000, 69.231888
1235.000000, 69.393234
1236.000000, 69.558604
1237.000000, 69.726630
1238.000000, 69.770008
1239.000000, 69.886725
1240.000000, 69.966074
1241.000000, 70.059415
1242.000000, 70.167575
1243.000000, 70.131803
1244.000000, 70.205610
1245.000000, 70.224094
1246.000000, 70.259161
1247.000000, 70.277840
1248.000000, 70.320201
1249.000000, 70.320798
1250.000000, 70.363431
1251.000000, 70.367759
1252.000000, 70.414853
1253.000000, 70.468940
1254.000000, 70.447392
1255.000000, 70.509757
1256.000000, 70.580285
1257.000000, 70.705579
1258.000000, 70.752021
1259.000000, 70.862724
1260.000000, 70.927058
1261.000000, 71.010177
1262.000000, 71.126708
1263.000000, 71.221284
1264.000000, 71.305528
1265.000000, 71.425762
1266.000000, 71.521007
1267.000000, 71.625694
1268.000000, 71.696966
1269.000000, 71.738056
1270.000000, 71.812786
1271.000000, 71.850244
1272.000000, 71.851763
1273.000000, 71.889903
1274.000000, 71.872267
1275.000000, 71.800513
1276.000000, 71.734284
1277.000000, 71.629605
1278.000000, 71.503089
1279.000000, 71.341479
1280.000000, 71.157070
1281.000000, 70.945033
1282.000000, 70.708728
1283.000000, 70.417582
1284.000000, 70.114219
1285.000000, 69.796502
1286.000000, 69.447025
1287.000000, 69.089314
1288.000000, 68.739067
1289.000000, 68.331105
1290.000000, 67.924344
1291.000000, 67.514098
1292.000000, 67.108107
1293.000000, 66.693602
1294.000000, 66.305235
1295.000000, 65.907863
1296.000000, 65.509545
1297.000000, 65.153478
1298.000000, 64.806708
1299.000000, 64.467326
1300.000000, 64.158246
1301.000000, 63.876441
1302.000000, 63.628695
1303.000000, 63.375739
1304.000000, 63.183208
1305.000000, 63.037656
1306.000000, 62.902578
1307.000000, 62.788339
1308.000000, 62.717577
1309.000000, 62.686181
1310.000000, 62.691800
1311.000000, 62.726949
1312.000000, 62.788201
1313.000000, 62.910393
1314.000000, 63.005866
1315.000000, 63.198451
1316.000000, 63.394344
1317.000000, 63.601530
1318.000000, 63.862182
1319.000000, 64.146396
1320.000000, 64.451701
1321.000000, 64.769898
1322.000000, 65.128055
1323.000000, 65.463782
1324.000000, 65.868860
1325.000000, 66.276649
1326.000000, 66.655883
1327.000000, 67.084523
1328.000000, 67.520343
1329.000000, 67.935625
1330.000000, 68.360600
1331.000000, 68.787068
1332.000000, 69.215694
1333.000000, 69.613503
1334.000000, 70.050024
1335.000000, 70.429402
1336.000000, 70.796979
1337.000000, 71.176079
1338.000000, 71.519198
1339.000000, 71.824114
1340.000000, 72.141903
1341.000000, 72.410869
1342.000000, 72.673124
1343.000000, 72.925746
1344.000000, 73.094057
1345.000000, 73.274584
1346.000000, 73.407347
1347.000000, 73.563102
1348.000000, 73.655907
1349.000000, 73.743752
1350.000000, 73.785926
1351.000000, 73.855420
1352.000000, 73.859522
1353.000000, 73.868340
1354.000000, 73.839803
1355.000000, 73.806523
1356.000000, 73.774722
1357.000000, 73.731192
1358.000000, 73.679898
1359.000000, 73.596879
1360.000000, 73.541656
1361.000000, 73.474246
1362.000000, 73.392128
1363.000000, 73.291099
1364.000000, 73.235120
1365.000000, 73.158475
1366.000000, 73.052689
1367.000000, 72.912546
1368.000000, 72.801643
1369.000000, 72.685668
1370.000000, 72.515306
1371.000000, 72.333234
1372.000000, 72.110238
1373.000000, 71.863811
1374.000000, 71.603585
1375.000000, 71.374079
1376.000000, 71.066167
1377.000000, 70.831432
1378.000000, 70.606275
1379.000000, 70.376762
1380.000000, 70.219257
1381.000000, 70.071952
1382.000000, 69.996471
1383.000000, 69.966523
1384.000000, 69.981357
1385.000000, 70.048200
1386.000000, 70.136420
1387.000000, 70.269758
1388.000000, 70.382215
1389.000000, 70.530343
1390.000000, 70.652271
1391.000000, 70.792982
1392.000000, 70.952887
1393.000000, 71.063303
1394.000000, 71.184712
1395.000000, 71.270567
1396.000000, 71.306739
1397.000000, 71.407441
1398.000000, 71.427745
1399.000000, 71.419159
1400.000000, 71.375152
1401.000000, 71.388011
1402.000000, 71.310552
1403.000000, 71.252744
1404.000000, 71.178879
1405.000000, 71.031239
1406.000000, 70.943512
1407.000000, 70.806215
1408.000000, 70.654249
1409.000000, 70.507321
1410.000000, 70.355368
1411.000000, 70.209281
1412.000000, 70.050491
1413.000000, 69.925917
1414.000000, 69.790306
1415.000000, 69.629221
1416.000000, 69.508424
1417.000000, 69.365217
1418.000000, 69.266534
1419.000000, 69.166085
1420.000000, 69.091037
1421.000000, 69.037342
1422.000000, 68.819473
1423.000000, 68.924753
1424.000000, 68.906601
1425.000000, 68.923219
1426.000000, 68.940176
1427.000000, 68.998501
1428.000000, 69.058742
1429.000000, 69.168993
1430.000000, 69.265607
1431.000000, 69.404644
1432.000000, 69.561377
1433.000000, 69.730451
1434.000000, 69.942141
1435.000000, 70.150113
1436.000000, 70.380812
1437.000000, 70.641938
1438.000000, 70.915082
1439.000000, 71.200803
1440.000000, 71.497622
1441.000000, 71.812490
1442.000000, 72.162365
1443.000000, 72.482305
1444.000000, 72.831742
1445.000000, 73.195427
1446.000000, 73.558323
1447.000000, 73.927588
1448.000000, 74.306315
1449.000000, 74.663184
1450.000000, 75.022114
1451.000000, 75.407782
1452.000000, 75.766791
1453.000000, 76.104561
1454.000000, 76.462334
1455.000000, 76.782584
1456.000000, 77.104955
1457.000000, 77.394641
1458.000000, 77.683596
1459.000000, 78.001606
1460.000000, 78.229807
1461.000000, 78.472763
1462.000000, 78.654756
1463.000000, 78.828422
1464.000000, 78.933333
1465.000000, 79.133613
1466.000000, 79.241746
1467.000000, 79.392414
1468.000000, 79.368359
1469.000000, 79.420687
1470.000000, 79.426263
1471.000000, 79.408202
1472.000000, 79.370345
1473.000000, 79.291872
1474.000000, 79.227481
1475.000000, 79.113527
1476.000000, 78.979031
1477.000000, 78.903633
1478.000000, 78.764522
1479.000000, 78.618881
1480.000000, 78.456498
1481.000000, 78.271759
1482.000000, 78.086277
1483.000000, 77.896734
1484.000000, 77.747114
1485.000000, 77.559841
1486.000000, 77.380405
1487.000000, 77.226630
1488.000000, 77.069263
1489.000000, 76.862082
1490.000000, 76.724752
1491.000000, 76.579463
1492.000000, 76.460965
1493.000000, 76.347890
1494.000000, 76.263402
1495.000000, 76.114379
1496.000000, 76.002743
1497.000000, 75.972453
1498.000000, 75.913193
1499.000000, 75.898273
1500.000000, 75.844909
1501.000000, 75.804398
1502.000000, 75.780714
1503.000000, 75.827787
1504.000000, 75.836574
1505.000000, 75.916106
1506.000000, 75.917803
1507.000000, 75.965121
1508.000000, 76.013505
1509.000000, 76.110352
1510.000000, 76.194422
1511.000000, 76.285938
1512.000000, 76.386450
1513.000000, 76.523262
1514.000000, 76.577859
1515.000000, 76.669934
1516.000000, 76.828886
1517.000000, 76.920661
1518.000000, 77.072697
1519.000000, 77.127907
1520.000000, 77.244221
1521.000000, 77.347618
1522.000000, 77.436758
1523.000000, 77.544762
1524.000000, 77.638936
1525.000000, 77.699296
1526.000000, 77.755679
1527.000000, 77.827629
1528.000000, 77.895621
1529.000000, 77.889484
1530.000000, 77.935655
1531.000000, 77.952996
1532.000000, 77.959158
1533.000000, 77.912937
1534.000000, 77.919727
1535.000000, 77.924126
1536.000000, 77.850584
1537.000000, 77.757308
1538.000000, 77.690112
1539.000000, 77.636648
1540.000000, 77.600547
1541.000000, 77.475522
1542.000000, 77.286541
1543.000000, 77.241028
1544.000000, 77.153491
1545.000000, 76.981956
1546.000000, 76.894305
1547.000000, 76.746469
1548.000000, 76.571665
1549.000000, 76.524525
1550.000000, 76.334174
1551.000000, 76.218943
1552.000000, 76.091969
1553.000000, 75.954131
1554.000000, 75.859226
1555.000000, 75.747637
1556.000000, 75.638834
1557.000000, 75.560101
1558.000000, 75.493706
1559.000000, 75.399991
1560.000000, 75.345516
1561.000000, 75.320105
1562.000000, 75.282084
1563.000000, 75.268305
1564.000000, 75.258958
1565.000000, 75.280023
1566.000000, 75.329610
1567.000000, 75.375227
1568.000000, 75.404061
1569.000000, 75.518627
1570.000000, 75.627483
1571.000000, 75.739122
1572.000000, 75.825627
1573.000000, 76.004780
1574.000000, 76.189631
1575.000000, 76.402654
1576.000000, 76.573789
1577.000000, 76.760766
1578.000000, 77.016415
1579.000000, 77.263901
1580.000000, 77.567027
1581.000000, 77.797717
1582.000000, 78.087719
1583.000000, 78.398607
1584.000000, 78.724648
1585.000000, 79.029791
1586.000000, 79.361813
1587.000000, 79.705263
1588.000000, 80.038348
1589.000000, 80.373073
1590.000000, 80.753266
1591.000000, 81.105547
1592.000000, 81.417151
1593.000000, 81.778535
1594.000000, 82.158516
1595.000000, 82.480070
1596.000000, 82.792026
1597.000000, 83.131290
1598.000000, 83.473348
1599.000000, 83.737090
1600.000000, 84.060911
1601.000000, 84.321628
1602.000000, 84.534230
1603.000000, 84.801227
1604.000000, 85.002393
1605.000000, 85.230558
1606.000000, 85.375238
1607.000000, 85.475020
1608.000000, 85.623265
1609.000000, 85.723889
1610.000000, 85.772920
1611.000000, 85.810540
1612.000000, 85.823643
1613.000000, 85.802092
1614.000000, 85.731854
1615.000000, 85.641264
1616.000000, 85.549784
1617.000000, 85.445303
1618.000000, 85.223406
1619.000000, 85.048360
1620.000000, 84.865034
1621.000000, 84.616605
1622.000000, 84.338557
1623.000000, 84.073915
1624.000000, 83.781322
1625.000000, 83.430292
1626.000000, 83.128631
1627.000000, 82.782065
1628.000000, 82.420949
1629.000000, 82.060433
1630.000000, 81.709389
1631.000000, 81.306716
1632.000000, 80.940341
1633.000000, 80.549955
1634.000000, 80.180239
1635.000000, 79.847249
1636.000000, 79.420000
1637.000000, 79.073047
1638.000000, 78.705198
1639.000000, 78.366766
1640.000000, 78.034126
1641.000000, 77.680945
1642.000000, 77.383863
1643.000000, 77.073256
1644.000000, 76.784796
1645.000000, 76.514437
1646.000000, 76.242745
1647.000000, 76.023572
1648.000000, 75.801829
1649.000000, 75.563914
1650.000000, 75.402380
1651.000000, 75.230198
1652.000000, 75.094597
1653.000000, 74.921970
1654.000000, 74.837264
1655.000000, 74.765706
1656.000000, 74.644976
1657.000000, 74.616600
1658.000000, 74.561444
1659.000000, 74.609380
1660.000000, 74.579857
1661.000000, 74.602525
1662.000000, 74.623663
1663.000000, 74.699656
1664.000000, 74.769785
1665.000000, 74.858197
1666.000000, 74.955726
1667.000000, 75.130811
1668.000000, 75.249473
1669.000000, 75.380134
1670.000000, 75.589366
1671.000000, 75.758906
1672.000000, 75.941466
1673.000000, 76.181774
1674.000000, 76.408316
1675.000000, 76.606355
1676.000000, 76.862794
1677.000000, 77.166981
1678.000000, 77.396527
1679.000000, 77.619534
1680.000000, 77.958457
1681.000000, 78.270069
1682.000000, 78.497155
1683.000000, 78.770730
1684.000000, 79.132586
1685.000000, 79.415930
1686.000000, 79.643383
1687.000000, 80.011122
1688.000000, 80.282956
1689.000000, 80.583011
1690.000000, 80.849645
1691.000000, 81.160211
1692.000000, 81.434179
1693.000000, 81.665234
1694.000000, 81.973948
1695.000000, 82.266159
1696.000000, 82.446858
1697.000000, 82.700537
1698.000000, 82.990696
1699.000000, 83.146222
1700.000000, 83.349892
1701.000000, 83.566013
1702.000000, 83.775265
1703.000000, 83.898429
1704.000000, 84.075158
1705.000000, 84.203145
1706.000000, 84.337085
1707.000000, 84.427779
1708.000000, 84.570255
1709.000000, 84.625825
1710.000000, 84.666080
1711.000000, 84.691240
1712.000000, 84.780095
1713.000000, 84.782498
1714.000000, 84.789993
1715.000000, 84.783880
1716.000000, 84.780135
1717.000000, 84.752971
1718.000000, 84.692626
1719.000000, 84.670007
1720.000000, 84.625462
1721.000000, 84.527510
1722.000000, 84.483160
1723.000000, 84.414279
1724.000000, 84.325823
1725.000000, 84.208334
1726.000000, 84.131362
1727.000000, 84.070730
1728.000000, 83.928966
1729.000000, 83.854108
1730.000000, 83.762338
1731.000000, 83.686242
1732.000000, 83.584430
1733.000000, 83.504702
1734.000000, 83.410799
1735.000000, 83.334131
1736.000000, 83.265090
1737.000000, 83.206052
1738.000000, 83.136298
1739.000000, 83.068598
1740.000000, 83.051157
1741.000000, 83.017911
1742.000000, 82.984363
1743.000000, 82.951276
1744.000000, 82.945856
1745.000000, 82.974039
1746.000000, 82.971691
1747.000000, 82.987276
1748.000000, 83.037197
1749.000000, 83.074795
1750.000000, 83.121146
1751.000000, 83.216193
1752.000000, 83.287862
1753.000000, 83.352956
1754.000000, 83.402553
1755.000000, 83.597003
1756.000000, 83.668075
1757.000000, 83.802911
1758.000000, 83.905719
1759.000000, 84.102247
1760.000000, 84.241596
1761.000000, 84.371413
1762.000000, 84.581105
1763.000000, 84.778827
1764.000000, 84.944497
1765.000000, 85.135514
1766.000000, 85.283639
1767.000000, 85.507390
1768.000000, 85.710929
1769.000000, 85.902710
1770.000000, 86.105654
1771.000000, 86.311847
1772.000000, 86.527081
1773.000000, 86.717717
1774.000000, 86.937135
1775.000000, 87.126855
1776.000000, 87.316349
1777.000000, 87.536196
1778.000000, 87.717569
1779.000000, 87.840648
1780.000000, 88.036488
1781.000000, 88.205785
1782.000000, 88.389759
1783.000000, 88.497523
1784.000000, 88.641462
1785.000000, 88.737894
1786.000000, 88.880590
1787.000000, 88.958607
1788.000000, 89.021866
1789.000000, 89.080731
1790.000000, 89.141599
1791.000000, 89.168933
1792.000000, 89.180548
1793.000000, 89.180942
1794.000000, 89.147636
1795.000000, 89.147028
1796.000000, 89.047932
1797.000000, 88.993040
1798.000000, 88.859227
1799.000000, 88.825950
1800.000000, 88.634451
1801.000000, 88.522181
1802.000000, 88.340264
1803.000000, 88.130130
1804.000000, 87.982634
1805.000000, 87.751327
1806.000000, 87.526302
1807.000000, 87.272545
1808.000000, 87.017699
1809.000000, 86.761203
1810.000000, 86.464592
1811.000000, 86.178628
1812.000000, 85.884559
1813.000000, 85.578366
1814.000000, 85.275967
1815.000000, 84.921923
1816.000000, 84.635489
1817.000000, 84.276533
1818.000000, 83.921899
1819.000000, 83.587412
1820.000000, 83.220737
1821.000000, 82.921872
1822.000000, 82.533657
1823.000000, 82.251914
1824.000000, 81.888460
1825.000000, 81.550635
1826.000000, 81.210011
1827.000000, 80.883426
1828.000000, 80.581875
1829.000000, 80.279855
1830.000000, 79.968681
1831.000000, 79.684823
1832.000000, 79.400472
1833.000000, 79.087033
1834.000000, 78.845699
1835.000000, 78.556813
1836.000000, 78.323621
1837.000000, 78.073205
1838.000000, 77.848108
1839.000000, 77.634550
1840.000000, 77.416636
1841.000000, 77.194998
1842.000000, 77.036112
1843.000000, 76.855167
1844.000000, 76.707601
1845.000000, 76.577801
1846.000000, 76.469812
1847.000000, 76.353217
1848.000000, 76.263994
1849.000000, 76.177068
1850.000000, 76.108809
1851.000000, 76.059540
1852.000000, 76.022673
1853.000000, 75.976394
1854.000000, 75.972636
1855.000000, 75.979975
1856.000000, 75.992494
1857.000000, 76.026075
1858.000000, 76.064650
1859.000000, 76.131439
1860.000000, 76.212148
1861.000000, 76.254425
1862.000000, 76.366865
1863.000000, 76.486959
1864.000000, 76.592458
1865.000000, 76.731519
1866.000000, 76.853292
1867.000000, 77.027876
1868.000000, 77.182361
1869.000000, 77.372434
1870.000000, 77.563524
1871.000000, 77.775925
1872.000000, 77.986733
1873.000000, 78.265872
1874.000000, 78.487533
1875.000000, 78.723782
1876.000000, 78.975565
1877.000000, 79.224367
1878.000000, 79.482326
1879.000000, 79.725628
1880.000000, 79.977017
1881.000000, 80.248183
1882.000000, 80.498541
1883.000000, 80.776845
1884.000000, 81.079828
1885.000000, 81.346765
1886.000000, 81.671214
1887.000000, 81.913250
1888.000000, 82.230741
1889.000000, 82.532328
1890.000000, 82.818037
1891.000000, 83.175023
1892.000000, 83.444275
1893.000000, 83.734640
1894.000000, 84.023911
1895.000000, 84.327717
1896.000000, 84.621173
1897.000000, 84.907444
1898.000000, 85.163710
1899.000000, 85.467019
1900.000000, 85.740062
1901.000000, 86.024933
1902.000000, 86.249823
1903.000000, 86.537028
1904.000000, 86.762212
1905.000000, 87.025807
1906.000000, 87.226197
1907.000000, 87.425523
1908.000000, 87.648351
1909.000000, 87.826404
1910.000000, 88.068326
1911.000000, 88.241790
1912.000000, 88.358582
1913.000000, 88.488591
1914.000000, 88.596768
1915.000000, 88.715616
1916.000000, 88.821806
1917.000000, 88.910458
1918.000000, 89.002817
1919.000000, 89.078483
1920.000000, 89.074209
1921.000000, 89.108737
1922.000000, 89.145268
1923.000000, 89.183193
1924.000000, 89.177098
1925.000000, 89.185231
1926.000000, 89.146523
1927.000000, 89.129199
1928.000000, 89.093733
1929.000000, 89.042211
1930.000000, 88.971933
1931.000000, 88.898264
1932.000000, 88.836070
1933.000000, 88.766557
1934.000000, 88.622357
1935.000000, 88.502937
1936.000000, 88.405333
1937.000000, 88.291590
1938.000000, 88.196708
1939.000000, 88.044954
1940.000000, 87.919903
1941.000000, 87.785311
1942.000000, 87.654320
1943.000000, 87.514445
1944.000000, 87.356995
1945.000000, 87.216345
1946.000000, 87.091119
1947.000000, 86.951088
1948.000000, 86.809461
1949.000000, 86.679911
1950.000000, 86.557005
1951.000000, 86.346692
1952.000000, 86.265878
1953.000000, 86.155435
1954.000000, 85.978482
1955.000000, 85.817119
1956.000000, 85.767574
1957.000000, 85.638631
1958.000000, 85.529259
1959.000000, 85.422703
1960.000000, 85.323003
1961.000000, 85.225117
1962.000000, 85.141491
1963.000000, 85.055070
1964.000000, 84.974081
1965.000000, 84.922033
1966.000000, 84.841784
1967.000000, 84.774047
1968.000000, 84.746319
1969.000000, 84.695225
1970.000000, 84.661285
1971.000000, 84.628304
1972.000000, 84.595961
1973.000000, 84.565214
1974.000000, 84.563243
1975.000000, 84.612692
1976.000000, 84.532401
1977.000000, 84.564681
1978.000000, 84.636668
1979.000000, 84.623719
1980.000000, 84.613907
1981.000000, 84.681325
1982.000000, 84.702985
1983.000000, 84.753031
1984.000000, 84.782388
1985.000000, 84.842683
1986.000000, 84.901556
1987.000000, 84.939821
1988.000000, 85.043742
1989.000000, 85.069419
1990.000000, 85.138956
1991.000000, 85.289462
1992.000000, 85.279637
1993.000000, 85.357789
1994.000000, 85.447241
1995.000000, 85.542413
1996.000000, 85.618074
1997.000000, 85.711115
1998.000000, 85.815393
1999.000000, 85.879855
2000.000000, 85.918522
2001.000000, 85.982950
2002.000000, 86.054590
2003.000000, 86.142225
2004.000000, 86.231689
2005.000000, 86.274593
2006.000000, 86.414517
2007.000000, 86.427602
2008.000000, 86.474604
2009.000000, 86.611273
2010.000000, 86.671879
2011.000000, 86.643583
2012.000000, 86.750721
2013.000000, 86.744800
2014.000000, 86.830809
2015.000000, 86.813530
2016.000000, 86.859883
2017.000000, 86.897949
2018.000000, 86.855113
2019.000000, 86.896163
2020.000000, 86.878931
2021.000000, 86.861415
2022.000000, 86.839028
2023.000000, 86.805875
2024.000000, 86.774521
2025.000000, 86.733669
2026.000000, 86.669820
2027.000000, 86.615177
2028.000000, 86.552704
2029.000000, 86.470890
2030.000000, 86.384930
2031.000000, 86.290345
2032.000000, 86.203323
2033.000000, 86.093778
2034.000000, 85.974381
2035.000000, 85.849766
2036.000000, 85.708199
2037.000000, 85.578482
2038.000000, 85.414043
2039.000000, 85.259072
2040.000000, 85.118670
2041.000000, 84.951290
2042.000000, 84.775380
2043.000000, 84.594491
2044.000000, 84.428868
2045.000000, 84.229483
2046.000000, 84.039155
2047.000000, 83.857062
2048.000000, 83.643874
2049.000000, 83.437757
2050.000000, 83.241045
2051.000000, 83.046579
2052.000000, 82.830522
2053.000000, 82.598403
2054.000000, 82.423286
2055.000000, 82.203286
2056.000000, 81.948179
2057.000000, 81.778883
2058.000000, 81.559676
2059.000000, 81.379814
2060.000000, 81.098389
2061.000000, 80.919624
2062.000000, 80.716019
2063.000000, 80.527571
2064.000000, 80.311536
2065.000000, 80.115403
2066.000000, 79.914917
2067.000000, 79.738450
2068.000000, 79.539869
2069.000000, 79.357431
2070.000000, 79.185518
2071.000000, 79.014791
2072.000000, 78.832755
2073.000000, 78.703267
2074.000000, 78.517293
2075.000000, 78.363181
2076.000000, 78.227854
2077.000000, 78.088492
2078.000000, 77.917681
2079.000000, 77.831448
2080.000000, 77.692660
2081.000000, 77.603392
2082.000000, 77.444619
2083.000000, 77.369735
2084.000000, 77.276209
2085.000000, 77.187831
2086.000000, 77.110242
2087.000000, 77.011432
2088.000000, 76.966391
2089.000000, 76.910815
2090.000000, 76.866723
2091.000000, 76.806162
2092.000000, 76.778613
2093.000000, 76.755953
2094.000000, 76.716009
2095.000000, 76.710124
2096.000000, 76.709124
2097.000000, 76.697233
2098.000000, 76.735116
2099.000000, 76.739364
2100.000000, 76.741273
2101.000000, 76.796779
2102.000000, 76.849445
2103.000000, 76.880519
2104.000000, 76.939247
2105.000000, 77.007274
2106.000000, 77.122829
2107.000000, 77.145579
2108.000000, 77.247608
2109.000000, 77.306431
2110.000000, 77.479655
2111.000000, 77.542669
2112.000000, 77.682950
2113.000000, 77.767909
2114.000000, 77.926448
2115.000000, 78.059748
2116.000000, 78.176974
2117.000000, 78.331401
2118.000000, 78.474690
2119.000000, 78.654182
2120.000000, 78.792360
2121.000000, 78.993910
2122.000000, 79.154116
2123.000000, 79.319844
2124.000000, 79.495591
2125.000000, 79.717078
2126.000000, 79.895065
2127.000000, 80.080734
2128.000000, 80.268313
2129.000000, 80.469156
2130.000000, 80.686815
2131.000000, 80.861862
2132.000000, 81.085563
2133.000000, 81.279622
2134.000000, 81.498358
2135.000000, 81.684647
2136.000000, 81.884409
2137.000000, 82.105799
2138.000000, 82.292662
2139.000000, 82.500809
2140.000000, 82.720721
2141.000000, 82.915975
2142.000000, 83.085092
2143.000000, 83.331106
2144.000000, 83.506035
2145.000000, 83.674930
2146.000000, 83.872494
2147.000000, 84.079364
2148.000000, 84.241611
2149.000000, 84.377714
2150.000000, 84.592687
2151.000000, 84.760094
2152.000000, 84.912219
2153.000000, 85.033001
2154.000000, 85.216411
2155.000000, 85.367766
2156.000000, 85.472001
2157.000000, 85.608587
2158.000000, 85.738494
2159.000000, 85.857619
2160.000000, 85.944195
2161.000000, 86.063747
2162.000000, 86.161452
2163.000000, 86.230984
2164.000000, 86.292005
2165.000000, 86.353327
2166.000000, 86.412193
2167.000000, 86.448578
2168.000000, 86.453511
2169.000000, 86.468351
2170.000000, 86.453637
2171.000000, 86.429297
2172.000000, 86.392696
2173.000000, 86.352600
2174.000000, 86.280033
2175.000000, 86.158635
2176.000000, 86.052590
2177.000000, 85.924920
2178.000000, 85.741610
2179.000000, 85.599680
2180.000000, 85.360722
2181.000000, 85.146972
2182.000000, 84.893025
2183.000000, 84.576540
2184.000000, 84.281813
2185.000000, 83.897370
2186.000000, 83.573932
2187.000000, 83.014838
2188.000000, 82.664868
2189.000000, 82.162254
2190.000000, 81.643367
2191.000000, 81.023866
2192.000000, 80.452492
2193.000000, 79.831978
2194.000000, 79.165471
2195.000000, 78.508083
2196.000000, 77.786988
2197.000000, 77.044381
2198.000000, 76.355269
2199.000000, 75.643872
2200.000000, 74.896394
2201.000000, 74.241809
2202.000000, 73.554893
2203.000000, 72.952353
2204.000000, 72.305494
2205.000000, 71.758693
2206.000000, 71.183167
2207.000000, 70.723908
2208.000000, 70.311084
2209.000000, 69.907151
2210.000000, 69.551267
2211.000000, 69.281054
2212.000000, 69.002175
2213.000000, 68.802393
2214.000000, 68.605622
2215.000000, 68.483427
2216.000000, 68.365670
2217.000000, 68.280780
2218.000000, 68.229134
2219.000000, 68.174833
2220.000000, 68.164402
2221.000000, 68.149630
2222.000000, 68.117903
2223.000000, 68.100939
2224.000000, 68.099078
2225.000000, 68.093528
2226.000000, 68.099503
2227.000000, 68.077524
2228.000000, 68.062418
2229.000000, 68.056986
2230.000000, 68.037272
2231.000000, 67.997517
2232.000000, 67.973176
2233.000000, 67.940274
2234.000000, 67.901913
2235.000000, 67.850022
2236.000000, 67.809265
2237.000000, 67.760443
2238.000000, 67.719405
2239.000000, 67.690935
2240.000000, 67.659153
2241.000000, 67.611697
2242.000000, 67.586462
2243.000000, 67.571529
2244.000000, 67.555365
2245.000000, 67.544329
2246.000000, 67.550533
2247.000000, 67.561255
2248.000000, 67.583329
2249.000000, 67.601710
2250.000000, 67.632184
2251.000000, 67.683734
2252.000000, 67.754361
2253.000000, 67.820230
2254.000000, 67.897740
2255.000000, 67.993055
2256.000000, 68.093441
2257.000000, 68.195947
2258.000000, 68.319330
2259.000000, 68.441997
2260.000000, 68.553148
2261.000000, 68.714810
2262.000000, 68.868278
2263.000000, 69.033094
2264.000000, 69.204374
2265.000000, 69.370137
2266.000000, 69.549984
2267.000000, 69.731773
2268.000000, 69.920460
2269.000000, 70.119358
2270.000000, 70.308029
2271.000000, 70.525795
2272.000000, 70.743341
2273.000000, 70.940781
2274.000000, 71.130008
2275.000000, 71.354990
2276.000000, 71.566691
2277.000000, 71.789345
2278.000000, 71.989349
2279.000000, 72.191433
2280.000000, 72.399545
2281.000000, 72.605965
2282.000000, 72.830238
2283.000000, 73.039609
2284.000000, 73.230178
2285.000000, 73.452202
2286.000000, 73.657244
2287.000000, 73.854815
2288.000000, 74.050934
2289.000000, 74.269806
2290.000000, 74.498743
2291.000000, 74.695130
2292.000000, 74.888641
2293.000000, 75.088489
2294.000000, 75.314053
2295.000000, 75.524177
2296.000000, 75.697091
2297.000000, 75.884954
2298.000000, 76.100130
2299.000000, 76.299526
2300.000000, 76.482721
2301.000000, 76.678473
2302.000000, 76.848435
2303.000000, 77.055284
2304.000000, 77.248533
2305.000000, 77.413208
2306.000000, 77.572573
2307.000000, 77.762913
2308.000000, 77.945083
2309.000000, 78.112150
2310.000000, 78.269603
2311.000000, 78.423786
2312.000000, 78.580078
2313.000000, 78.742892
2314.000000, 78.875388
2315.000000, 79.016582
2316.000000, 79.162209
2317.000000, 79.306097
2318.000000, 79.452557
2319.000000, 79.568302
2320.000000, 79.678585
2321.000000, 79.808806
2322.000000, 79.926147
2323.000000, 80.020341
2324.000000, 80.088854
2325.000000, 80.166565
2326.000000, 80.297827
2327.000000, 80.394978
2328.000000, 80.446441
2329.000000, 80.517016
2330.000000, 80.573543
2331.000000, 80.675171
2332.000000, 80.719898
2333.000000, 80.770075
2334.000000, 80.791119
2335.000000, 80.873008
2336.000000, 80.880123
2337.000000, 80.899198
2338.000000, 80.917639
2339.000000, 80.943767
2340.000000, 80.975910
2341.000000, 80.966274
2342.000000, 80.973202
2343.000000, 80.954197
2344.000000, 80.930088
2345.000000, 80.918780
2346.000000, 80.904132
2347.000000, 80.870640
2348.000000, 80.837693
2349.000000, 80.806593
2350.000000, 80.786303
2351.000000, 80.725956
2352.000000, 80.676955
2353.000000, 80.644036
2354.000000, 80.585127
2355.000000, 80.540209
2356.000000, 80.466766
2357.000000, 80.375716
2358.000000, 80.335040
2359.000000, 80.283416
2360.000000, 80.203426
2361.000000, 80.106915
2362.000000, 80.037942
2363.000000, 79.948145
2364.000000, 79.889941
2365.000000, 79.764893
2366.000000, 79.703947
2367.000000, 79.593799
2368.000000, 79.491882
2369.000000, 79.417581
2370.000000, 79.249712
2371.000000, 79.201011
2372.000000, 79.089771
2373.000000, 78.975463
2374.000000, 78.886960
2375.000000, 78.768813
2376.000000, 78.657113
2377.000000, 78.542246
2378.000000, 78.463965
2379.000000, 78.378258
2380.000000, 78.241844
2381.000000, 78.157437
2382.000000, 78.064694
2383.000000, 77.941492
2384.000000, 77.843926
2385.000000, 77.734416
2386.000000, 77.644363
2387.000000, 77.527550
2388.000000, 77.424211
2389.000000, 77.327451
2390.000000, 77.203711
2391.000000, 77.138343
2392.000000, 77.006509
2393.000000, 76.920406
2394.000000, 76.792083
2395.000000, 76.717109
2396.000000, 76.599303
2397.000000, 76.496972
2398.000000, 76.416235
2399.000000, 76.327780
2400.000000, 76.227748
2401.000000, 76.152854
2402.000000, 76.077164
2403.000000, 75.979456
2404.000000, 75.922848
2405.000000, 75.826370
2406.000000, 75.770747
2407.000000, 75.696364
2408.000000, 75.639035
2409.000000, 75.558757
2410.000000, 75.514660
2411.000000, 75.437600
2412.000000, 75.382040
2413.000000, 75.332699
2414.000000, 75.277079
2415.000000, 75.187954
2416.000000, 75.182838
2417.000000, 75.096955
2418.000000, 75.081257
2419.000000, 75.031491
2420.000000, 75.004552
2421.000000, 74.968385
2422.000000, 74.953660
2423.000000, 74.937391
2424.000000, 74.925796
2425.000000, 74.878488
2426.000000, 74.877345
2427.000000, 74.868775
2428.000000, 74.875839
2429.000000, 74.864809
2430.000000, 74.852817
2431.000000, 74.891842
2432.000000, 74.904508
2433.000000, 74.902696
2434.000000, 74.917979
2435.000000, 74.942191
2436.000000, 74.953575
2437.000000, 74.990671
2438.000000, 75.008369
2439.000000, 75.037915
2440.000000, 75.077133
2441.000000, 75.124268
2442.000000, 75.126811
2443.000000, 75.174103
2444.000000, 75.205063
2445.000000, 75.262019
2446.000000, 75.303978
2447.000000, 75.367199
2448.000000, 75.405951
2449.000000, 75.451044
2450.000000, 75.535933
2451.000000, 75.578950
2452.000000, 75.647496
2453.000000, 75.721188
2454.000000, 75.805259
2455.000000, 75.863681
2456.000000, 75.940699
2457.000000, 75.997081
2458.000000, 76.090148
2459.000000, 76.169397
2460.000000, 76.259013
2461.000000, 76.330105
2462.000000, 76.406037
2463.000000, 76.475133
2464.000000, 76.550005
2465.000000, 76.647342
2466.000000, 76.722665
2467.000000, 76.799301
2468.000000, 76.862485
2469.000000, 76.937560
2470.000000, 77.004794
2471.000000, 77.065851
2472.000000, 77.132805
2473.000000, 77.193945
2474.000000, 77.267539
2475.000000, 77.326705
2476.000000, 77.402139
2477.000000, 77.481743
2478.000000, 77.538190
2479.000000, 77.606365
2480.000000, 77.640772
2481.000000, 77.701161
2482.000000, 77.758559
2483.000000, 77.797879
2484.000000, 77.846197
2485.000000, 77.881317
2486.000000, 77.914694
2487.000000, 77.957835
2488.000000, 77.967407
2489.000000, 78.001350
2490.000000, 77.998951
2491.000000, 78.001609
2492.000000, 78.036505
2493.000000, 78.023921
2494.000000, 78.034370
2495.000000, 78.003934
2496.000000, 78.004860
2497.000000, 77.965645
2498.000000, 77.950977
2499.000000, 77.915768
2500.000000, 77.923842