# Wavelength  (nm), Transmission (%)
200.000000, 0.004943
201.000000, 0.004841
202.000000, 0.004785
203.000000, 0.004684
204.000000, 0.004538
205.000000, 0.004501
206.000000, 0.004409
207.000000, 0.004275
208.000000, 0.004155
209.000000, 0.004072
210.000000, 0.003975
211.000000, 0.003886
212.000000, 0.003831
213.000000, 0.003746
214.000000, 0.003676
215.000000, 0.003594
216.000000, 0.003602
217.000000, 0.003530
218.000000, 0.003565
219.000000, 0.003493
220.000000, 0.003502
221.000000, 0.003497
222.000000, 0.003491
223.000000, 0.003498
224.000000, 0.003533
225.000000, 0.003546
226.000000, 0.003564
227.000000, 0.003541
228.000000, 0.003546
229.000000, 0.003512
230.000000, 0.003528
231.000000, 0.003474
232.000000, 0.003504
233.000000, 0.003490
234.000000, 0.003462
235.000000, 0.003412
236.000000, 0.003412
237.000000, 0.003367
238.000000, 0.003318
239.000000, 0.003304
240.000000, 0.003263
241.000000, 0.003230
242.000000, 0.003186
243.000000, 0.003162
244.000000, 0.003113
245.000000, 0.003102
246.000000, 0.003082
247.000000, 0.003074
248.000000, 0.003057
249.000000, 0.003008
250.000000, 0.002983
251.000000, 0.002960
252.000000, 0.002966
253.000000, 0.002936
254.000000, 0.002926
255.000000, 0.002909
256.000000, 0.002870
257.000000, 0.002866
258.000000, 0.002816
259.000000, 0.002824
260.000000, 0.002761
261.000000, 0.002744
262.000000, 0.002750
263.000000, 0.002694
264.000000, 0.002699
265.000000, 0.002684
266.000000, 0.002625
267.000000, 0.002638
268.000000, 0.002595
269.000000, 0.002568
270.000000, 0.002544
271.000000, 0.002572
272.000000, 0.002530
273.000000, 0.002519
274.000000, 0.002471
275.000000, 0.002473
276.000000, 0.002465
277.000000, 0.002458
278.000000, 0.002439
279.000000, 0.002371
280.000000, 0.002390
281.000000, 0.002297
282.000000, 0.002316
283.000000, 0.002318
284.000000, 0.002280
285.000000, 0.002216
286.000000, 0.002210
287.000000, 0.002193
288.000000, 0.002161
289.000000, 0.002104
290.000000, 0.002065
291.000000, 0.002059
292.000000, 0.001990
293.000000, 0.001952
294.000000, 0.001902
295.000000, 0.001836
296.000000, 0.001754
297.000000, 0.001671
298.000000, 0.001570
299.000000, 0.001576
300.000000, 0.001460
301.000000, 0.001438
302.000000, 0.001343
303.000000, 0.001278
304.000000, 0.001239
305.000000, 0.001115
306.000000, 0.001087
307.000000, 0.001023
308.000000, 0.000909
309.000000, 0.000867
310.000000, 0.000795
311.000000, 0.000746
312.000000, 0.000672
313.000000, 0.000621
314.000000, 0.000624
315.000000, 0.000536
316.000000, 0.000500
317.000000, 0.000444
318.000000, 0.000389
319.000000, 0.000373
320.000000, 0.000355
321.000000, 0.000294
322.000000, 0.000278
323.000000, 0.000249
324.000000, 0.000252
325.000000, 0.000211
326.000000, 0.000211
327.000000, 0.000180
328.000000, 0.000168
329.000000, 0.000175
330.000000, 0.000150
331.000000, 0.000131
332.000000, 0.000158
333.000000, 0.000130
334.000000, 0.000104
335.000000, 0.000113
336.000000, 0.000098
337.000000, 0.000088
338.000000, 0.000113
339.000000, 0.000095
340.000000, 0.000086
341.000000, 0.000072
342.000000, 0.000075
343.000000, 0.000070
344.000000, 0.000075
345.000000, 0.000079
346.000000, 0.000066
347.000000, 0.000053
348.000000, 0.000070
349.000000, -0.000087
350.000000, 0.000078
351.000000, 0.000088
352.000000, 0.000104
353.000000, 0.000083
354.000000, 0.000141
355.000000, 0.000181
356.000000, 0.000284
357.000000, 0.000480
358.000000, 0.000823
359.000000, 0.001491
360.000000, 0.002649
361.000000, 0.004798
362.000000, 0.008318
363.000000, 0.014197
364.000000, 0.024027
365.000000, 0.039508
366.000000, 0.063812
367.000000, 0.100980
368.000000, 0.156007
369.000000, 0.235668
370.000000, 0.346529
371.000000, 0.502838
372.000000, 0.709584
373.000000, 0.978352
374.000000, 1.327362
375.000000, 1.779979
376.000000, 2.350371
377.000000, 3.031360
378.000000, 3.837047
379.000000, 4.797202
380.000000, 5.881987
381.000000, 7.140552
382.000000, 8.619160
383.000000, 10.289438
384.000000, 11.968699
385.000000, 13.598794
386.000000, 15.319406
387.000000, 17.307926
388.000000, 19.314886
389.000000, 21.274691
390.000000, 23.496477
391.000000, 26.075035
392.000000, 28.617441
393.000000, 30.384043
394.000000, 30.992815
395.000000, 30.957436
396.000000, 31.621071
397.000000, 34.324554
398.000000, 38.584267
399.000000, 41.782848
400.000000, 42.183117
401.000000, 41.909683
402.000000, 43.348976
403.000000, 43.150478
404.000000, 36.727779
405.000000, 26.847807
406.000000, 19.496281
407.000000, 15.699021
408.000000, 12.382290
409.000000, 8.116133
410.000000, 4.224696
411.000000, 1.959346
412.000000, 0.960759
413.000000, 0.524433
414.000000, 0.315772
415.000000, 0.203400
416.000000, 0.136433
417.000000, 0.095710
418.000000, 0.070517
419.000000, 0.056234
420.000000, 0.050400
421.000000, 0.052913
422.000000, 0.068117
423.000000, 0.092796
424.000000, 0.100447
425.000000, 0.073340
426.000000, 0.036666
427.000000, 0.015799
428.000000, 0.008112
429.000000, 0.005059
430.000000, 0.003741
431.000000, 0.003193
432.000000, 0.003083
433.000000, 0.003364
434.000000, 0.004244
435.000000, 0.006351
436.000000, 0.012227
437.000000, 0.040731
438.000000, 0.163548
439.000000, 0.299182
440.000000, 0.258118
441.000000, 0.121889
442.000000, 0.048772
443.000000, 0.036599
444.000000, 0.038453
445.000000, 0.051616
446.000000, 0.090161
447.000000, 0.225065
448.000000, 1.408304
449.000000, 6.367751
450.000000, 11.067266
451.000000, 6.820635
452.000000, 3.874191
453.000000, 3.113034
454.000000, 6.985170
455.000000, 16.456717
456.000000, 22.371119
457.000000, 16.411325
458.000000, 7.844924
459.000000, 4.851676
460.000000, 5.406731
461.000000, 9.592749
462.000000, 18.428658
463.000000, 24.950071
464.000000, 20.987944
465.000000, 12.220941
466.000000, 7.120722
467.000000, 5.808091
468.000000, 6.483883
469.000000, 9.455709
470.000000, 16.032930
471.000000, 24.982353
472.000000, 29.267035
473.000000, 25.527668
474.000000, 19.217541
475.000000, 15.845941
476.000000, 16.181343
477.000000, 20.349642
478.000000, 29.002035
479.000000, 40.215122
480.000000, 46.962181
481.000000, 44.542641
482.000000, 37.240883
483.000000, 31.925789
484.000000, 31.164953
485.000000, 35.189804
486.000000, 43.622730
487.000000, 53.797424
488.000000, 59.738384
489.000000, 57.525051
490.000000, 49.933151
491.000000, 43.080700
492.000000, 39.858791
493.000000, 40.866470
494.000000, 45.961609
495.000000, 54.391254
496.000000, 63.830101
497.000000, 70.411911
498.000000, 71.332375
499.000000, 67.681313
500.000000, 62.923126
501.000000, 59.948776
502.000000, 59.686893
503.000000, 61.708347
504.000000, 64.610039
505.000000, 66.666862
506.000000, 66.566505
507.000000, 64.289322
508.000000, 60.991497
509.000000, 58.215012
510.000000, 56.869678
511.000000, 57.420670
512.000000, 59.695923
513.000000, 63.127731
514.000000, 66.689583
515.000000, 69.331894
516.000000, 70.351318
517.000000, 69.920822
518.000000, 68.741936
519.000000, 67.716240
520.000000, 67.416725
521.000000, 68.089745
522.000000, 69.482689
523.000000, 71.101303
524.000000, 72.343376
525.000000, 72.728691
526.000000, 72.219383
527.000000, 71.116295
528.000000, 69.978149
529.000000, 69.324059
530.000000, 69.545502
531.000000, 70.756439
532.000000, 72.832886
533.000000, 75.355301
534.000000, 77.823486
535.000000, 79.568222
536.000000, 80.191597
537.000000, 79.574661
538.000000, 78.000916
539.000000, 75.942993
540.000000, 74.050552
541.000000, 72.536858
542.000000, 71.806900
543.000000, 71.910217
544.000000, 72.813828
545.000000, 74.346436
546.000000, 76.349800
547.000000, 78.398468
548.000000, 80.196754
549.000000, 81.420174
550.000000, 81.800217
551.000000, 81.374130
552.000000, 80.294426
553.000000, 78.928566
554.000000, 77.552139
555.000000, 76.551041
556.000000, 76.114212
557.000000, 76.417580
558.000000, 77.401360
559.000000, 78.938217
560.000000, 80.831383
561.000000, 82.726738
562.000000, 84.309799
563.000000, 85.287567
564.000000, 85.504852
565.000000, 85.023544
566.000000, 84.068336
567.000000, 82.987282
568.000000, 82.134308
569.000000, 81.561455
570.000000, 81.556953
571.000000, 82.026070
572.000000, 82.848824
573.000000, 83.895432
574.000000, 84.772598
575.000000, 85.388588
576.000000, 85.531052
577.000000, 85.294434
578.000000, 84.717796
579.000000, 84.079254
580.000000, 83.538132
581.000000, 83.343483
582.000000, 83.492813
583.000000, 84.107033
584.000000, 84.959000
585.000000, 85.984299
586.000000, 86.868706
587.000000, 87.444153
588.000000, 87.545792
589.000000, 87.185318
590.000000, 86.401192
591.000000, 85.383835
592.000000, 84.331856
593.000000, 83.424202
594.000000, 82.841362
595.000000, 82.616074
596.000000, 82.710457
597.000000, 83.107986
598.000000, 83.681877
599.000000, 84.226242
600.000000, 84.684509
601.000000, 84.927132
602.000000, 84.989838
603.000000, 84.890503
604.000000, 84.646820
605.000000, 84.506943
606.000000, 84.491638
607.000000, 84.688583
608.000000, 85.135941
609.000000, 85.751053
610.000000, 86.480423
611.000000, 87.219437
612.000000, 87.774841
613.000000, 88.082214
614.000000, 88.065483
615.000000, 87.703880
616.000000, 87.159439
617.000000, 86.427933
618.000000, 85.784012
619.000000, 85.257820
620.000000, 84.969955
621.000000, 85.010757
622.000000, 85.317574
623.000000, 85.836395
624.000000, 86.528923
625.000000, 87.188210
626.000000, 87.713478
627.000000, 88.074043
628.000000, 88.123985
629.000000, 87.994164
630.000000, 87.572006
631.000000, 87.159767
632.000000, 86.685974
633.000000, 86.354431
634.000000, 86.196991
635.000000, 86.249863
636.000000, 86.487617
637.000000, 86.862328
638.000000, 87.274078
639.000000, 87.669640
640.000000, 87.940697
641.000000, 88.104126
642.000000, 88.121971
643.000000, 87.968391
644.000000, 87.800568
645.000000, 87.562569
646.000000, 87.401604
647.000000, 87.352379
648.000000, 87.414078
649.000000, 87.580086
650.000000, 87.783691
651.000000, 87.950668
652.000000, 88.000832
653.000000, 87.842720
654.000000, 87.481522
655.000000, 86.922615
656.000000, 86.252594
657.000000, 85.509781
658.000000, 84.904663
659.000000, 84.470024
660.000000, 84.303596
661.000000, 84.402496
662.000000, 84.807991
663.000000, 85.367592
664.000000, 86.028984
665.000000, 86.613449
666.000000, 87.022041
667.000000, 87.090698
668.000000, 86.855782
669.000000, 86.313950
670.000000, 85.626320
671.000000, 84.926834
672.000000, 84.420677
673.000000, 84.171204
674.000000, 84.241760
675.000000, 84.677162
676.000000, 85.333839
677.000000, 86.085686
678.000000, 86.751427
679.000000, 87.098763
680.000000, 87.092636
681.000000, 86.766281
682.000000, 86.270180
683.000000, 85.776604
684.000000, 85.494698
685.000000, 85.476425
686.000000, 85.674149
687.000000, 85.678818
688.000000, 85.198067
689.000000, 83.898804
690.000000, 81.842720
691.000000, 79.512398
692.000000, 77.766838
693.000000, 77.577347
694.000000, 78.781853
695.000000, 78.197006
696.000000, 69.845284
697.000000, 51.399006
698.000000, 29.143206
699.000000, 14.674635
700.000000, 6.085863
701.000000, 2.961819
702.000000, 1.375792
703.000000, 0.667329
704.000000, 0.339970
705.000000, 0.178167
706.000000, 0.096403
707.000000, 0.053708
708.000000, 0.030544
709.000000, 0.018075
710.000000, 0.010935
711.000000, 0.006911
712.000000, 0.004482
713.000000, 0.003020
714.000000, 0.002133
715.000000, 0.001565
716.000000, 0.001155
717.000000, 0.000910
718.000000, 0.000736
719.000000, 0.000573
720.000000, 0.000499
721.000000, 0.000418
722.000000, 0.000361
723.000000, 0.000334
724.000000, 0.000278
725.000000, 0.000247
726.000000, 0.000224
727.000000, 0.000226
728.000000, 0.000185
729.000000, 0.000174
730.000000, 0.000158
731.000000, 0.000145
732.000000, 0.000150
733.000000, 0.000124
734.000000, 0.000116
735.000000, 0.000118
736.000000, 0.000117
737.000000, 0.000098
738.000000, 0.000093
739.000000, 0.000088
740.000000, 0.000090
741.000000, 0.000099
742.000000, 0.000087
743.000000, 0.000082
744.000000, 0.000074
745.000000, 0.000090
746.000000, 0.000078
747.000000, 0.000077
748.000000, 0.000074
749.000000, 0.000064
750.000000, 0.000080
751.000000, 0.000069
752.000000, 0.000065
753.000000, 0.000062
754.000000, 0.000078
755.000000, 0.000073
756.000000, 0.000066
757.000000, 0.000054
758.000000, 0.000065
759.000000, 0.000070
760.000000, 0.000061
761.000000, 0.000062
762.000000, 0.000065
763.000000, 0.000068
764.000000, 0.000052
765.000000, 0.000065
766.000000, 0.000062
767.000000, 0.000058
768.000000, 0.000075
769.000000, 0.000054
770.000000, 0.000062
771.000000, 0.000063
772.000000, 0.000055
773.000000, 0.000066
774.000000, 0.000052
775.000000, 0.000067
776.000000, 0.000054
777.000000, 0.000052
778.000000, 0.000064
779.000000, 0.000049
780.000000, 0.000061
781.000000, 0.000059
782.000000, 0.000052
783.000000, 0.000063
784.000000, 0.000046
785.000000, 0.000047
786.000000, 0.000052
787.000000, 0.000050
788.000000, 0.000067
789.000000, 0.000045
790.000000, 0.000053
791.000000, 0.000046
792.000000, 0.000047
793.000000, 0.000062
794.000000, 0.000045
795.000000, 0.000050
796.000000, 0.000058
797.000000, 0.000057
798.000000, 0.000070
799.000000, 0.000044
800.000000, 0.000460
801.000000, 0.000559
802.000000, 0.000417
803.000000, 0.000744
804.000000, 0.000487
805.000000, 0.000459
806.000000, 0.000403
807.000000, 0.000557
808.000000, 0.000827
809.000000, 0.000451
810.000000, 0.000433
811.000000, 0.000441
812.000000, 0.000536
813.000000, 0.000286
814.000000, 0.000183
815.000000, 0.000387
816.000000, 0.000793
817.000000, 0.000674
818.000000, 0.000599
819.000000, 0.000342
820.000000, 0.000467
821.000000, 0.000514
822.000000, 0.000590
823.000000, 0.000548
824.000000, 0.000505
825.000000, 0.000388
826.000000, 0.000679
827.000000, 0.000696
828.000000, 0.000501
829.000000, 0.000670
830.000000, 0.000698
831.000000, 0.000325
832.000000, 0.000600
833.000000, 0.000509
834.000000, 0.000698
835.000000, 0.000746
836.000000, 0.000469
837.000000, 0.000499
838.000000, 0.000583
839.000000, 0.000749
840.000000, 0.000485
841.000000, 0.000519
842.000000, 0.000461
843.000000, 0.000698
844.000000, 0.000578
845.000000, 0.000601
846.000000, 0.000504
847.000000, 0.000615
848.000000, 0.000432
849.000000, 0.000403
850.000000, 0.000432
851.000000, 0.000416
852.000000, 0.000625
853.000000, 0.000407
854.000000, 0.000447
855.000000, 0.000443
856.000000, 0.000561
857.000000, 0.000331
858.000000, 0.000436
859.000000, 0.000598
860.000000, 0.000518
861.000000, 0.000523
862.000000, 0.000519
863.000000, 0.000563
864.000000, 0.000646
865.000000, 0.000600
866.000000, 0.000556
867.000000, 0.000552
868.000000, 0.000549
869.000000, 0.000504
870.000000, 0.000511
871.000000, 0.000382
872.000000, 0.000431
873.000000, 0.000436
874.000000, 0.000464
875.000000, 0.000462
876.000000, 0.000386
877.000000, 0.000508
878.000000, 0.000420
879.000000, 0.000471
880.000000, 0.000532
881.000000, 0.000468
882.000000, 0.000405
883.000000, 0.000429
884.000000, 0.000400
885.000000, 0.000382
886.000000, 0.000384
887.000000, 0.000379
888.000000, 0.000441
889.000000, 0.000483
890.000000, 0.000384
891.000000, 0.000472
892.000000, 0.000440
893.000000, 0.000416
894.000000, 0.000363
895.000000, 0.000410
896.000000, 0.000404
897.000000, 0.000425
898.000000, 0.000415
899.000000, 0.000464
900.000000, 0.000444
901.000000, 0.000356
902.000000, 0.000397
903.000000, 0.000463
904.000000, 0.000425
905.000000, 0.000472
906.000000, 0.000339
907.000000, 0.000436
908.000000, 0.000369
909.000000, 0.000387
910.000000, 0.000413
911.000000, 0.000383
912.000000, 0.000446
913.000000, 0.000423
914.000000, 0.000435
915.000000, 0.000299
916.000000, 0.000467
917.000000, 0.000420
918.000000, 0.000437
919.000000, 0.000358
920.000000, 0.000433
921.000000, 0.000420
922.000000, 0.000364
923.000000, 0.000373
924.000000, 0.000377
925.000000, 0.000397
926.000000, 0.000360
927.000000, 0.000364
928.000000, 0.000438
929.000000, 0.000369
930.000000, 0.000409
931.000000, 0.000341
932.000000, 0.000368
933.000000, 0.000483
934.000000, 0.000402
935.000000, 0.000403
936.000000, 0.000357
937.000000, 0.000369
938.000000, 0.000471
939.000000, 0.000438
940.000000, 0.000371
941.000000, 0.000393
942.000000, 0.000455
943.000000, 0.000437
944.000000, 0.000458
945.000000, 0.000392
946.000000, 0.000453
947.000000, 0.000457
948.000000, 0.000553
949.000000, 0.000412
950.000000, 0.000411
951.000000, 0.000413
952.000000, 0.000444
953.000000, 0.000456
954.000000, 0.000514
955.000000, 0.000395
956.000000, 0.000440
957.000000, 0.000425
958.000000, 0.000374
959.000000, 0.000426
960.000000, 0.000396
961.000000, 0.000533
962.000000, 0.000510
963.000000, 0.000554
964.000000, 0.000614
965.000000, 0.000795
966.000000, 0.000888
967.000000, 0.000949
968.000000, 0.001218
969.000000, 0.001506
970.000000, 0.002232
971.000000, 0.003682
972.000000, 0.008381
973.000000, 0.029627
974.000000, 0.094412
975.000000, 0.210290
976.000000, 0.347255
977.000000, 0.488126
978.000000, 0.627879
979.000000, 0.770412
980.000000, 0.916505
981.000000, 1.056424
982.000000, 1.198045
983.000000, 1.315721
984.000000, 1.340429
985.000000, 1.261294
986.000000, 1.146634
987.000000, 1.028051
988.000000, 0.911704
989.000000, 0.801800
990.000000, 0.712547
991.000000, 0.669777
992.000000, 0.754520
993.000000, 1.155083
994.000000, 2.064830
995.000000, 2.905907
996.000000, 3.830820
997.000000, 4.846314
998.000000, 6.285309
999.000000, 8.871085
1000.000000, 13.250354
1001.000000, 22.062101
1002.000000, 32.039791
1003.000000, 31.237715
1004.000000, 22.949142
1005.000000, 15.995407
1006.000000, 11.403469
1007.000000, 8.439977
1008.000000, 6.412319
1009.000000, 5.017926
1010.000000, 4.211280
1011.000000, 3.331079
1012.000000, 2.700249
1013.000000, 2.597975
1014.000000, 2.774701
1015.000000, 3.176334
1016.000000, 3.624633
1017.000000, 4.210613
1018.000000, 5.024296
1019.000000, 6.121869
1020.000000, 7.890508
1021.000000, 10.576546
1022.000000, 14.673437
1023.000000, 21.585875
1024.000000, 33.139629
1025.000000, 50.291698
1026.000000, 67.207428
1027.000000, 69.586296
1028.000000, 56.124676
1029.000000, 40.929169
1030.000000, 28.870279
1031.000000, 21.263685
1032.000000, 16.278788
1033.000000, 12.970745
1034.000000, 10.747097
1035.000000, 9.384525
1036.000000, 8.449294
1037.000000, 7.847591
1038.000000, 7.522799
1039.000000, 7.381911
1040.000000, 7.435926
1041.000000, 7.671096
1042.000000, 8.084326
1043.000000, 8.691619
1044.000000, 9.534918
1045.000000, 10.657360
1046.000000, 12.230269
1047.000000, 14.367825
1048.000000, 17.097061
1049.000000, 20.941675
1050.000000, 26.175768
1051.000000, 33.354614
1052.000000, 43.313202
1053.000000, 56.508507
1054.000000, 70.492798
1055.000000, 81.993172
1056.000000, 85.876312
1057.000000, 80.479149
1058.000000, 69.135658
1059.000000, 56.325764
1060.000000, 45.658188
1061.000000, 37.079296
1062.000000, 30.859148
1063.000000, 26.095692
1064.000000, 22.685577
1065.000000, 20.008738
1066.000000, 18.047503
1067.000000, 16.599642
1068.000000, 15.553932
1069.000000, 14.840707
1070.000000, 14.350756
1071.000000, 14.081782
1072.000000, 14.023582
1073.000000, 14.151035
1074.000000, 14.461848
1075.000000, 14.985214
1076.000000, 15.673058
1077.000000, 16.666574
1078.000000, 17.908384
1079.000000, 19.479856
1080.000000, 21.397148
1081.000000, 23.806265
1082.000000, 26.812992
1083.000000, 30.446964
1084.000000, 35.149952
1085.000000, 41.030296
1086.000000, 47.709259
1087.000000, 55.844612
1088.000000, 64.917168
1089.000000, 74.032448
1090.000000, 82.378372
1091.000000, 88.458397
1092.000000, 90.557182
1093.000000, 88.489265
1094.000000, 83.041542
1095.000000, 76.230087
1096.000000, 68.147919
1097.000000, 60.513020
1098.000000, 53.684147
1099.000000, 47.919064
1100.000000, 43.041954
1101.000000, 39.067307
1102.000000, 35.874432
1103.000000, 33.154888
1104.000000, 30.956701
1105.000000, 29.349911
1106.000000, 28.035128
1107.000000, 27.054316
1108.000000, 26.384798
1109.000000, 25.967180
1110.000000, 25.777805
1111.000000, 25.819901
1112.000000, 26.107115
1113.000000, 26.603609
1114.000000, 27.323538
1115.000000, 28.296513
1116.000000, 29.570541
1117.000000, 31.131605
1118.000000, 32.893826
1119.000000, 35.045074
1120.000000, 37.718765
1121.000000, 40.666637
1122.000000, 44.338802
1123.000000, 48.639893
1124.000000, 53.206497
1125.000000, 58.431919
1126.000000, 64.126495
1127.000000, 69.966927
1128.000000, 75.875366
1129.000000, 81.738701
1130.000000, 86.323807
1131.000000, 89.766594
1132.000000, 91.364220
1133.000000, 91.294273
1134.000000, 89.436638
1135.000000, 86.006584
1136.000000, 81.617447
1137.000000, 76.668732
1138.000000, 71.527260
1139.000000, 66.448662
1140.000000, 61.872971
1141.000000, 57.404625
1142.000000, 53.340996
1143.000000, 50.093948
1144.000000, 47.041477
1145.000000, 44.440727
1146.000000, 42.287819
1147.000000, 40.459606
1148.000000, 38.881821
1149.000000, 37.644531
1150.000000, 36.644779
1151.000000, 35.864487
1152.000000, 35.328587
1153.000000, 35.017586
1154.000000, 34.928070
1155.000000, 35.061848
1156.000000, 35.330944
1157.000000, 35.830040
1158.000000, 36.520706
1159.000000, 37.386173
1160.000000, 38.536186
1161.000000, 39.845173
1162.000000, 41.339870
1163.000000, 43.171242
1164.000000, 45.263992
1165.000000, 47.541584
1166.000000, 50.197266
1167.000000, 53.234398
1168.000000, 56.505924
1169.000000, 59.981926
1170.000000, 63.823689
1171.000000, 67.709053
1172.000000, 71.809875
1173.000000, 75.979820
1174.000000, 80.085274
1175.000000, 83.565826
1176.000000, 86.821976
1177.000000, 89.475258
1178.000000, 91.044060
1179.000000, 91.658600
1180.000000, 91.597458
1181.000000, 90.381844
1182.000000, 88.413971
1183.000000, 85.848297
1184.000000, 82.835861
1185.000000, 79.496368
1186.000000, 75.918701
1187.000000, 72.359131
1188.000000, 68.985390
1189.000000, 65.681900
1190.000000, 62.560421
1191.000000, 59.752636
1192.000000, 57.183338
1193.000000, 54.734772
1194.000000, 52.716476
1195.000000, 50.900452
1196.000000, 49.259125
1197.000000, 47.901676
1198.000000, 46.716122
1199.000000, 45.817715
1200.000000, 44.987244
1201.000000, 44.440063
1202.000000, 43.927322
1203.000000, 43.705986
1204.000000, 43.580063
1205.000000, 43.621666
1206.000000, 43.847160
1207.000000, 44.197662
1208.000000, 44.788651
1209.000000, 45.398899
1210.000000, 46.202522
1211.000000, 47.235413
1212.000000, 48.384388
1213.000000, 49.754559
1214.000000, 51.267097
1215.000000, 52.937347
1216.000000, 54.761135
1217.000000, 56.861156
1218.000000, 59.124016
1219.000000, 61.512936
1220.000000, 64.101517
1221.000000, 66.742828
1222.000000, 69.539665
1223.000000, 72.414871
1224.000000, 75.303940
1225.000000, 78.153404
1226.000000, 81.099060
1227.000000, 83.725098
1228.000000, 86.115768
1229.000000, 88.068314
1230.000000, 89.880325
1231.000000, 91.083275
1232.000000, 91.949348
1233.000000, 92.292274
1234.000000, 91.950043
1235.000000, 91.207535
1236.000000, 90.187866
1237.000000, 88.562401
1238.000000, 86.732468
1239.000000, 84.805862
1240.000000, 82.578537
1241.000000, 80.255821
1242.000000, 77.926186
1243.000000, 75.500504
1244.000000, 73.182999
1245.000000, 70.908966
1246.000000, 68.900078
1247.000000, 66.847588
1248.000000, 65.020859
1249.000000, 63.209820
1250.000000, 61.622559
1251.000000, 60.213684
1252.000000, 58.882618
1253.000000, 57.686077
1254.000000, 56.767525
1255.000000, 55.955963
1256.000000, 55.238144
1257.000000, 54.659878
1258.000000, 54.210800
1259.000000, 53.865761
1260.000000, 53.667408
1261.000000, 53.638180
1262.000000, 53.704315
1263.000000, 53.964115
1264.000000, 54.284306
1265.000000, 54.726482
1266.000000, 55.245354
1267.000000, 56.061329
1268.000000, 56.828506
1269.000000, 57.881897
1270.000000, 58.956028
1271.000000, 60.056770
1272.000000, 61.423756
1273.000000, 62.808716
1274.000000, 64.372597
1275.000000, 65.983574
1276.000000, 67.871109
1277.000000, 69.619247
1278.000000, 71.528503
1279.000000, 73.452744
1280.000000, 75.392876
1281.000000, 77.387634
1282.000000, 79.515633
1283.000000, 81.526672
1284.000000, 83.441940
1285.000000, 85.211060
1286.000000, 86.885330
1287.000000, 88.270515
1288.000000, 89.648224
1289.000000, 90.902107
1290.000000, 91.645966
1291.000000, 92.226807
1292.000000, 92.534889
1293.000000, 92.630539
1294.000000, 92.230072
1295.000000, 91.560333
1296.000000, 90.770935
1297.000000, 89.748238
1298.000000, 88.585533
1299.000000, 87.360237
1300.000000, 85.727768
1301.000000, 84.179016
1302.000000, 82.576103
1303.000000, 80.824669
1304.000000, 79.179573
1305.000000, 77.445259
1306.000000, 75.894890
1307.000000, 74.137215
1308.000000, 72.525650
1309.000000, 71.107018
1310.000000, 69.610016
1311.000000, 68.312164
1312.000000, 67.089043
1313.000000, 65.894867
1314.000000, 64.809700
1315.000000, 63.890385
1316.000000, 62.973160
1317.000000, 62.177658
1318.000000, 61.595200
1319.000000, 60.953873
1320.000000, 60.431366
1321.000000, 60.049774
1322.000000, 59.766895
1323.000000, 59.581352
1324.000000, 59.447544
1325.000000, 59.486485
1326.000000, 59.443222
1327.000000, 59.661484
1328.000000, 59.911442
1329.000000, 60.299988
1330.000000, 60.698139
1331.000000, 61.153156
1332.000000, 61.787224
1333.000000, 62.525463
1334.000000, 63.141106
1335.000000, 64.018097
1336.000000, 64.982971
1337.000000, 65.911057
1338.000000, 67.017334
1339.000000, 68.116638
1340.000000, 69.362350
1341.000000, 70.569313
1342.000000, 71.863556
1343.000000, 73.203835
1344.000000, 74.534172
1345.000000, 76.001587
1346.000000, 77.501450
1347.000000, 78.930267
1348.000000, 80.485634
1349.000000, 81.837555
1350.000000, 83.212646
1351.000000, 84.612740
1352.000000, 85.818985
1353.000000, 87.041428
1354.000000, 88.134193
1355.000000, 89.268303
1356.000000, 90.029076
1357.000000, 90.654915
1358.000000, 91.334419
1359.000000, 91.856148
1360.000000, 92.074883
1361.000000, 92.153755
1362.000000, 92.196121
1363.000000, 91.912315
1364.000000, 91.552422
1365.000000, 91.207870
1366.000000, 90.486870
1367.000000, 89.729103
1368.000000, 88.828667
1369.000000, 88.117668
1370.000000, 87.019333
1371.000000, 86.018684
1372.000000, 84.852547
1373.000000, 83.791718
1374.000000, 82.621849
1375.000000, 81.438293
1376.000000, 80.337265
1377.000000, 79.307541
1378.000000, 78.140961
1379.000000, 77.122055
1380.000000, 76.104477
1381.000000, 75.105293
1382.000000, 74.163887
1383.000000, 73.235855
1384.000000, 72.323151
1385.000000, 71.673279
1386.000000, 70.978172
1387.000000, 70.329414
1388.000000, 69.686195
1389.000000, 69.168335
1390.000000, 68.773048
1391.000000, 68.330673
1392.000000, 67.920288
1393.000000, 67.637772
1394.000000, 67.446831
1395.000000, 67.317039
1396.000000, 67.208702
1397.000000, 67.228477
1398.000000, 67.302933
1399.000000, 67.327866
1400.000000, 67.543419
1401.000000, 67.780205
1402.000000, 68.096542
1403.000000, 68.459114
1404.000000, 68.864609
1405.000000, 69.341888
1406.000000, 69.826035
1407.000000, 70.360466
1408.000000, 70.967628
1409.000000, 71.619560
1410.000000, 72.241814
1411.000000, 73.008713
1412.000000, 73.821426
1413.000000, 74.612709
1414.000000, 75.451813
1415.000000, 76.271667
1416.000000, 77.162918
1417.000000, 78.093132
1418.000000, 79.012421
1419.000000, 79.922417
1420.000000, 80.856415
1421.000000, 81.700806
1422.000000, 82.661972
1423.000000, 83.608665
1424.000000, 84.472679
1425.000000, 85.287247
1426.000000, 86.163780
1427.000000, 86.941895
1428.000000, 87.770592
1429.000000, 88.459557
1430.000000, 88.991776
1431.000000, 89.596901
1432.000000, 90.197876
1433.000000, 90.655380
1434.000000, 90.888886
1435.000000, 91.124084
1436.000000, 91.334602
1437.000000, 91.387894
1438.000000, 91.367386
1439.000000, 91.265068
1440.000000, 91.031029
1441.000000, 90.797539
1442.000000, 90.228806
1443.000000, 89.808289
1444.000000, 89.262833
1445.000000, 88.701981
1446.000000, 88.176056
1447.000000, 87.431953
1448.000000, 86.783249
1449.000000, 85.970047
1450.000000, 85.319710
1451.000000, 84.537590
1452.000000, 83.815376
1453.000000, 82.998184
1454.000000, 82.232780
1455.000000, 81.396553
1456.000000, 80.619125
1457.000000, 79.909172
1458.000000, 79.140930
1459.000000, 78.338127
1460.000000, 77.680740
1461.000000, 77.032791
1462.000000, 76.420609
1463.000000, 75.807419
1464.000000, 75.346344
1465.000000, 74.732346
1466.000000, 74.304001
1467.000000, 73.760872
1468.000000, 73.340858
1469.000000, 72.985313
1470.000000, 72.743973
1471.000000, 72.426590
1472.000000, 72.161102
1473.000000, 71.964630
1474.000000, 71.762207
1475.000000, 71.561966
1476.000000, 71.604309
1477.000000, 71.463539
1478.000000, 71.544174
1479.000000, 71.626434
1480.000000, 71.696022
1481.000000, 71.799126
1482.000000, 72.007202
1483.000000, 72.167915
1484.000000, 72.403687
1485.000000, 72.632660
1486.000000, 73.013145
1487.000000, 73.371735
1488.000000, 73.764610
1489.000000, 74.251976
1490.000000, 74.651962
1491.000000, 75.112747
1492.000000, 75.671677
1493.000000, 76.175156
1494.000000, 76.902153
1495.000000, 77.415779
1496.000000, 77.926849
1497.000000, 78.583267
1498.000000, 79.275719
1499.000000, 80.074760
1500.000000, 80.807854
1501.000000, 81.375603
1502.000000, 82.232681
1503.000000, 82.804672
1504.000000, 83.614670
1505.000000, 84.241806
1506.000000, 84.970467
1507.000000, 85.592064
1508.000000, 86.230309
1509.000000, 86.884956
1510.000000, 87.390816
1511.000000, 88.094963
1512.000000, 88.578362
1513.000000, 88.999405
1514.000000, 89.638886
1515.000000, 90.045792
1516.000000, 90.322533
1517.000000, 90.666756
1518.000000, 90.944298
1519.000000, 91.286758
1520.000000, 91.349182
1521.000000, 91.430496
1522.000000, 91.378113
1523.000000, 91.373978
1524.000000, 91.360176
1525.000000, 91.148064
1526.000000, 90.964165
1527.000000, 90.807381
1528.000000, 90.329132
1529.000000, 90.051643
1530.000000, 89.720177
1531.000000, 89.251289
1532.000000, 88.841042
1533.000000, 88.310608
1534.000000, 87.807243
1535.000000, 87.359940
1536.000000, 86.786713
1537.000000, 86.281502
1538.000000, 85.640869
1539.000000, 85.077141
1540.000000, 84.468369
1541.000000, 83.834976
1542.000000, 83.315430
1543.000000, 82.747971
1544.000000, 82.042633
1545.000000, 81.584785
1546.000000, 80.957512
1547.000000, 80.520065
1548.000000, 80.080666
1549.000000, 79.614243
1550.000000, 79.136612
1551.000000, 78.637024
1552.000000, 78.153542
1553.000000, 77.868156
1554.000000, 77.466400
1555.000000, 77.016502
1556.000000, 76.678642
1557.000000, 76.474045
1558.000000, 76.041245
1559.000000, 75.748863
1560.000000, 75.486565
1561.000000, 75.334091
1562.000000, 75.138626
1563.000000, 74.779709
1564.000000, 74.677505
1565.000000, 74.603584
1566.000000, 74.479523
1567.000000, 74.329895
1568.000000, 74.338852
1569.000000, 74.233055
1570.000000, 74.300507
1571.000000, 74.239822
1572.000000, 74.215332
1573.000000, 74.345535
1574.000000, 74.451462
1575.000000, 74.593315
1576.000000, 74.707367
1577.000000, 74.880180
1578.000000, 75.188744
1579.000000, 75.376335
1580.000000, 75.520386
1581.000000, 75.879639
1582.000000, 76.088974
1583.000000, 76.462868
1584.000000, 76.742233
1585.000000, 77.228905
1586.000000, 77.504524
1587.000000, 77.850410
1588.000000, 78.381516
1589.000000, 78.902336
1590.000000, 79.274025
1591.000000, 79.743362
1592.000000, 80.197166
1593.000000, 80.620903
1594.000000, 81.203636
1595.000000, 81.745514
1596.000000, 82.174438
1597.000000, 82.725487
1598.000000, 83.229111
1599.000000, 83.728828
1600.000000, 84.198311
1601.000000, 84.745804
1602.000000, 85.301613
1603.000000, 85.849472
1604.000000, 86.244904
1605.000000, 86.751152
1606.000000, 87.270157
1607.000000, 87.654320
1608.000000, 88.051949
1609.000000, 88.483932
1610.000000, 89.022278
1611.000000, 89.302597
1612.000000, 89.752052
1613.000000, 90.146683
1614.000000, 90.379982
1615.000000, 90.590790
1616.000000, 90.850594
1617.000000, 91.083786
1618.000000, 91.184273
1619.000000, 91.424469
1620.000000, 91.486397
1621.000000, 91.646538
1622.000000, 91.601212
1623.000000, 91.573822
1624.000000, 91.637627
1625.000000, 91.676178
1626.000000, 91.512077
1627.000000, 91.376404
1628.000000, 91.253265
1629.000000, 90.992744
1630.000000, 90.867218
1631.000000, 90.511063
1632.000000, 90.358353
1633.000000, 89.926163
1634.000000, 89.611893
1635.000000, 89.305161
1636.000000, 88.941109
1637.000000, 88.589035
1638.000000, 88.274429
1639.000000, 87.791679
1640.000000, 87.366524
1641.000000, 86.870590
1642.000000, 86.523758
1643.000000, 85.996025
1644.000000, 85.616844
1645.000000, 85.157494
1646.000000, 84.719910
1647.000000, 84.196098
1648.000000, 83.776596
1649.000000, 83.378410
1650.000000, 82.894417
1651.000000, 82.536819
1652.000000, 82.048729
1653.000000, 81.671509
1654.000000, 81.375565
1655.000000, 80.872398
1656.000000, 80.383255
1657.000000, 80.132240
1658.000000, 79.549004
1659.000000, 79.133888
1660.000000, 78.733795
1661.000000, 78.372391
1662.000000, 77.889137
1663.000000, 77.525833
1664.000000, 77.121101
1665.000000, 76.706879
1666.000000, 76.351509
1667.000000, 76.064636
1668.000000, 75.755432
1669.000000, 75.427635
1670.000000, 75.444214
1671.000000, 75.237244
1672.000000, 75.262535
1673.000000, 75.258324
1674.000000, 75.281113
1675.000000, 75.311661
1676.000000, 75.335045
1677.000000, 75.308495
1678.000000, 75.423332
1679.000000, 75.602982
1680.000000, 75.592232
1681.000000, 75.648979
1682.000000, 75.675667
1683.000000, 75.616867
1684.000000, 75.644379
1685.000000, 75.651428
1686.000000, 75.677963
1687.000000, 75.836800
1688.000000, 75.865540
1689.000000, 76.000595
1690.000000, 76.116241
1691.000000, 76.441025
1692.000000, 76.604225
1693.000000, 76.907768
1694.000000, 77.261597
1695.000000, 77.392319
1696.000000, 77.732224
1697.000000, 77.958160
1698.000000, 78.140732
1699.000000, 78.506195
1700.000000, 78.692665
1701.000000, 79.136917
1702.000000, 79.598297
1703.000000, 79.915993
1704.000000, 80.293549
1705.000000, 80.681236
1706.000000, 81.144142
1707.000000, 81.580780
1708.000000, 82.031204
1709.000000, 82.416389
1710.000000, 82.886543
1711.000000, 83.099678
1712.000000, 83.670197
1713.000000, 83.904419
1714.000000, 84.210220
1715.000000, 84.492500
1716.000000, 84.812271
1717.000000, 85.149055
1718.000000, 85.444626
1719.000000, 85.740837
1720.000000, 86.042427
1721.000000, 86.159653
1722.000000, 86.488335
1723.000000, 86.744598
1724.000000, 87.023674
1725.000000, 87.275848
1726.000000, 87.496704
1727.000000, 87.683899
1728.000000, 87.919891
1729.000000, 88.086906
1730.000000, 88.234070
1731.000000, 88.407257
1732.000000, 88.523911
1733.000000, 88.638672
1734.000000, 88.696259
1735.000000, 88.655602
1736.000000, 88.728950
1737.000000, 88.798904
1738.000000, 88.883522
1739.000000, 88.815575
1740.000000, 88.916794
1741.000000, 89.097717
1742.000000, 88.883110
1743.000000, 89.021240
1744.000000, 88.911583
1745.000000, 88.916580
1746.000000, 88.906746
1747.000000, 88.854996
1748.000000, 88.641884
1749.000000, 88.517227
1750.000000, 88.407700
1751.000000, 88.218987
1752.000000, 88.113617
1753.000000, 87.979843
1754.000000, 87.793922
1755.000000, 87.592934
1756.000000, 87.434021
1757.000000, 87.188347
1758.000000, 86.903770
1759.000000, 86.705849
1760.000000, 86.259338
1761.000000, 86.109261
1762.000000, 85.931244
1763.000000, 85.508553
1764.000000, 85.282860
1765.000000, 85.068581
1766.000000, 84.821815
1767.000000, 84.537842
1768.000000, 84.224358
1769.000000, 84.039894
1770.000000, 83.720711
1771.000000, 83.627579
1772.000000, 83.327087
1773.000000, 83.199028
1774.000000, 82.941864
1775.000000, 82.775673
1776.000000, 82.592117
1777.000000, 82.396370
1778.000000, 82.285484
1779.000000, 82.094803
1780.000000, 81.981346
1781.000000, 81.777267
1782.000000, 81.560425
1783.000000, 81.479599
1784.000000, 81.378708
1785.000000, 81.281746
1786.000000, 81.306313
1787.000000, 81.035408
1788.000000, 80.861458
1789.000000, 80.853752
1790.000000, 80.719734
1791.000000, 80.652016
1792.000000, 80.566284
1793.000000, 80.592400
1794.000000, 80.639030
1795.000000, 80.521088
1796.000000, 80.470749
1797.000000, 80.432930
1798.000000, 80.438896
1799.000000, 80.495026
1800.000000, 80.538284
1801.000000, 80.589416
1802.000000, 80.474167
1803.000000, 80.548279
1804.000000, 80.595451
1805.000000, 80.682373
1806.000000, 80.839378
1807.000000, 80.920593
1808.000000, 81.052872
1809.000000, 81.136734
1810.000000, 81.273018
1811.000000, 81.279930
1812.000000, 81.403984
1813.000000, 81.544479
1814.000000, 81.831184
1815.000000, 81.881622
1816.000000, 82.022575
1817.000000, 82.137611
1818.000000, 82.293083
1819.000000, 82.552574
1820.000000, 82.715317
1821.000000, 83.015976
1822.000000, 83.201218
1823.000000, 83.297249
1824.000000, 83.553474
1825.000000, 83.720276
1826.000000, 84.050461
1827.000000, 84.174019
1828.000000, 84.290161
1829.000000, 84.614822
1830.000000, 84.874847
1831.000000, 85.149796
1832.000000, 85.324234
1833.000000, 85.472504
1834.000000, 85.739098
1835.000000, 85.970840
1836.000000, 86.170288
1837.000000, 86.471710
1838.000000, 86.662659
1839.000000, 86.839531
1840.000000, 87.069939
1841.000000, 87.357872
1842.000000, 87.594009
1843.000000, 87.799026
1844.000000, 87.906929
1845.000000, 87.987320
1846.000000, 88.250473
1847.000000, 88.486404
1848.000000, 88.720688
1849.000000, 88.912521
1850.000000, 88.944511
1851.000000, 89.027473
1852.000000, 89.205750
1853.000000, 89.494064
1854.000000, 89.591286
1855.000000, 89.746719
1856.000000, 89.848961
1857.000000, 89.854309
1858.000000, 89.894012
1859.000000, 90.007881
1860.000000, 90.096207
1861.000000, 90.087143
1862.000000, 90.100845
1863.000000, 90.224701
1864.000000, 90.193085
1865.000000, 90.233093
1866.000000, 90.285309
1867.000000, 90.169929
1868.000000, 90.135681
1869.000000, 90.180534
1870.000000, 90.090050
1871.000000, 89.928261
1872.000000, 90.006348
1873.000000, 89.941376
1874.000000, 89.767090
1875.000000, 89.782280
1876.000000, 89.621933
1877.000000, 89.489800
1878.000000, 89.309692
1879.000000, 89.270081
1880.000000, 89.167809
1881.000000, 88.932709
1882.000000, 88.760124
1883.000000, 88.573517
1884.000000, 88.467102
1885.000000, 88.378410
1886.000000, 88.150711
1887.000000, 87.836143
1888.000000, 87.636482
1889.000000, 87.498421
1890.000000, 87.159721
1891.000000, 87.216148
1892.000000, 86.903099
1893.000000, 86.722702
1894.000000, 86.468155
1895.000000, 86.352638
1896.000000, 86.081795
1897.000000, 85.921860
1898.000000, 85.657158
1899.000000, 85.435692
1900.000000, 85.256035
1901.000000, 85.061821
1902.000000, 84.850159
1903.000000, 84.680382
1904.000000, 84.560143
1905.000000, 84.189316
1906.000000, 83.954498
1907.000000, 83.830811
1908.000000, 83.747276
1909.000000, 83.609100
1910.000000, 83.300285
1911.000000, 83.173080
1912.000000, 82.976486
1913.000000, 82.971863
1914.000000, 82.608139
1915.000000, 82.617699
1916.000000, 82.450737
1917.000000, 82.213974
1918.000000, 82.061623
1919.000000, 82.013557
1920.000000, 81.841812
1921.000000, 81.714241
1922.000000, 81.575928
1923.000000, 81.407257
1924.000000, 81.340912
1925.000000, 81.297943
1926.000000, 81.168350
1927.000000, 81.148773
1928.000000, 80.995384
1929.000000, 81.008728
1930.000000, 80.877579
1931.000000, 80.885330
1932.000000, 80.774414
1933.000000, 80.814301
1934.000000, 80.696304
1935.000000, 80.746162
1936.000000, 80.668701
1937.000000, 80.697891
1938.000000, 80.671959
1939.000000, 80.778732
1940.000000, 80.705803
1941.000000, 80.749489
1942.000000, 80.754158
1943.000000, 80.727325
1944.000000, 80.799728
1945.000000, 80.917831
1946.000000, 80.940010
1947.000000, 80.898148
1948.000000, 81.044182
1949.000000, 81.035950
1950.000000, 81.220428
1951.000000, 81.227501
1952.000000, 81.402031
1953.000000, 81.416428
1954.000000, 81.548393
1955.000000, 81.648384
1956.000000, 81.710587
1957.000000, 81.816261
1958.000000, 81.931389
1959.000000, 82.066864
1960.000000, 82.274261
1961.000000, 82.302856
1962.000000, 82.419014
1963.000000, 82.591591
1964.000000, 82.803307
1965.000000, 82.878365
1966.000000, 83.040298
1967.000000, 83.150604
1968.000000, 83.464050
1969.000000, 83.563545
1970.000000, 83.646255
1971.000000, 83.877945
1972.000000, 83.949341
1973.000000, 84.179703
1974.000000, 84.355957
1975.000000, 84.524086
1976.000000, 84.717133
1977.000000, 84.842216
1978.000000, 84.998085
1979.000000, 85.244629
1980.000000, 85.347565
1981.000000, 85.616058
1982.000000, 85.758347
1983.000000, 85.804123
1984.000000, 86.028015
1985.000000, 86.250427
1986.000000, 86.418465
1987.000000, 86.696213
1988.000000, 86.722641
1989.000000, 86.827431
1990.000000, 87.080803
1991.000000, 87.266830
1992.000000, 87.376404
1993.000000, 87.318466
1994.000000, 87.606934
1995.000000, 87.693794
1996.000000, 87.885635
1997.000000, 87.923119
1998.000000, 88.122429
1999.000000, 88.096054
2000.000000, 88.233826
2001.000000, 88.256523
2002.000000, 88.431549
2003.000000, 88.523361
2004.000000, 88.595650
2005.000000, 88.644424
2006.000000, 88.682472
2007.000000, 88.769730
2008.000000, 88.793350
2009.000000, 88.829651
2010.000000, 88.798721
2011.000000, 88.747223
2012.000000, 88.843468
2013.000000, 88.784912
2014.000000, 88.728073
2015.000000, 88.888420
2016.000000, 88.791748
2017.000000, 88.747368
2018.000000, 88.646355
2019.000000, 88.630051
2020.000000, 88.546364
2021.000000, 88.529434
2022.000000, 88.473999
2023.000000, 88.334480
2024.000000, 88.263962
2025.000000, 88.152092
2026.000000, 88.047432
2027.000000, 88.000389
2028.000000, 87.865608
2029.000000, 87.939194
2030.000000, 87.807266
2031.000000, 87.608025
2032.000000, 87.635895
2033.000000, 87.664261
2034.000000, 87.490509
2035.000000, 87.380997
2036.000000, 87.264099
2037.000000, 87.174873
2038.000000, 86.999428
2039.000000, 86.957489
2040.000000, 86.684868
2041.000000, 86.535889
2042.000000, 86.379456
2043.000000, 86.165291
2044.000000, 86.060875
2045.000000, 85.855415
2046.000000, 85.512512
2047.000000, 85.491524
2048.000000, 85.280212
2049.000000, 85.145386
2050.000000, 84.877937
2051.000000, 84.692696
2052.000000, 84.579315
2053.000000, 84.439095
2054.000000, 84.217758
2055.000000, 84.092155
2056.000000, 83.909775
2057.000000, 83.607735
2058.000000, 83.451942
2059.000000, 83.305153
2060.000000, 83.038879
2061.000000, 82.891319
2062.000000, 82.638344
2063.000000, 82.494637
2064.000000, 82.271050
2065.000000, 82.128578
2066.000000, 81.952110
2067.000000, 81.680862
2068.000000, 81.468735
2069.000000, 81.332268
2070.000000, 81.126144
2071.000000, 80.964165
2072.000000, 80.819954
2073.000000, 80.594589
2074.000000, 80.314972
2075.000000, 80.226601
2076.000000, 80.062904
2077.000000, 79.842796
2078.000000, 79.626305
2079.000000, 79.413757
2080.000000, 79.289986
2081.000000, 79.170677
2082.000000, 79.024712
2083.000000, 78.881203
2084.000000, 78.710098
2085.000000, 78.556000
2086.000000, 78.427750
2087.000000, 78.271835
2088.000000, 78.274223
2089.000000, 78.174438
2090.000000, 77.999268
2091.000000, 77.916489
2092.000000, 77.809746
2093.000000, 77.780151
2094.000000, 77.620064
2095.000000, 77.600082
2096.000000, 77.532379
2097.000000, 77.567383
2098.000000, 77.446892
2099.000000, 77.362030
2100.000000, 77.427368
2101.000000, 77.354362
2102.000000, 77.301689
2103.000000, 77.216896
2104.000000, 77.256653
2105.000000, 77.221321
2106.000000, 77.256653
2107.000000, 77.258545
2108.000000, 77.148544
2109.000000, 77.239212
2110.000000, 77.197845
2111.000000, 77.162758
2112.000000, 77.270470
2113.000000, 77.265541
2114.000000, 77.298042
2115.000000, 77.301109
2116.000000, 77.418953
2117.000000, 77.349739
2118.000000, 77.387848
2119.000000, 77.441185
2120.000000, 77.356705
2121.000000, 77.399887
2122.000000, 77.439102
2123.000000, 77.512154
2124.000000, 77.436455
2125.000000, 77.547821
2126.000000, 77.367531
2127.000000, 77.443581
2128.000000, 77.293854
2129.000000, 77.315605
2130.000000, 77.177528
2131.000000, 76.961670
2132.000000, 76.978371
2133.000000, 76.765900
2134.000000, 76.774651
2135.000000, 76.783012
2136.000000, 76.749664
2137.000000, 76.946098
2138.000000, 77.042160
2139.000000, 77.244873
2140.000000, 77.471336
2141.000000, 77.831993
2142.000000, 77.979538
2143.000000, 78.228821
2144.000000, 78.473221
2145.000000, 78.677071
2146.000000, 78.934074
2147.000000, 79.077744
2148.000000, 79.185707
2149.000000, 79.242844
2150.000000, 79.242538
2151.000000, 79.376999
2152.000000, 79.331131
2153.000000, 79.181313
2154.000000, 79.271461
2155.000000, 79.138741
2156.000000, 78.974686
2157.000000, 78.968781
2158.000000, 78.721710
2159.000000, 78.736008
2160.000000, 78.496002
2161.000000, 78.594025
2162.000000, 78.533928
2163.000000, 78.576942
2164.000000, 78.805122
2165.000000, 79.015717
2166.000000, 79.336586
2167.000000, 79.744736
2168.000000, 80.132515
2169.000000, 80.503433
2170.000000, 80.819794
2171.000000, 81.354523
2172.000000, 81.607529
2173.000000, 81.922691
2174.000000, 82.270500
2175.000000, 82.423218
2176.000000, 82.567993
2177.000000, 82.854797
2178.000000, 83.000839
2179.000000, 83.121284
2180.000000, 83.073212
2181.000000, 83.245430
2182.000000, 83.161613
2183.000000, 83.190659
2184.000000, 83.202202
2185.000000, 83.147171
2186.000000, 83.342728
2187.000000, 83.231056
2188.000000, 83.227081
2189.000000, 83.281357
2190.000000, 83.326996
2191.000000, 83.321442
2192.000000, 83.337341
2193.000000, 83.491226
2194.000000, 83.450989
2195.000000, 83.570068
2196.000000, 83.638641
2197.000000, 83.715729
2198.000000, 83.793694
2199.000000, 83.751961
2200.000000, 83.766205
2201.000000, 83.820274
2202.000000, 83.927704
2203.000000, 83.811928
2204.000000, 83.804344
2205.000000, 83.802292
2206.000000, 83.751144
2207.000000, 83.792389
2208.000000, 83.663292
2209.000000, 83.591537
2210.000000, 83.614449
2211.000000, 83.709381
2212.000000, 83.581009
2213.000000, 83.541092
2214.000000, 83.423706
2215.000000, 83.410507
2216.000000, 83.431610
2217.000000, 83.358337
2218.000000, 83.350525
2219.000000, 83.169159
2220.000000, 83.118965
2221.000000, 83.132355
2222.000000, 82.902130
2223.000000, 82.734650
2224.000000, 82.626801
2225.000000, 82.475761
2226.000000, 82.306198
2227.000000, 82.195061
2228.000000, 82.058128
2229.000000, 81.908638
2230.000000, 81.775543
2231.000000, 81.516777
2232.000000, 81.474678
2233.000000, 81.230141
2234.000000, 81.156517
2235.000000, 81.055763
2236.000000, 81.009056
2237.000000, 80.760048
2238.000000, 80.603394
2239.000000, 80.469040
2240.000000, 80.340408
2241.000000, 80.175819
2242.000000, 79.978760
2243.000000, 79.741135
2244.000000, 79.436935
2245.000000, 79.269615
2246.000000, 79.076729
2247.000000, 78.772339
2248.000000, 78.516464
2249.000000, 78.223747
2250.000000, 77.885208
2251.000000, 77.600891
2252.000000, 77.192177
2253.000000, 76.924454
2254.000000, 76.489349
2255.000000, 76.139297
2256.000000, 75.719521
2257.000000, 75.346794
2258.000000, 74.957199
2259.000000, 74.452248
2260.000000, 74.134811
2261.000000, 73.643547
2262.000000, 73.177750
2263.000000, 72.770325
2264.000000, 72.251442
2265.000000, 71.873825
2266.000000, 71.297607
2267.000000, 70.840561
2268.000000, 70.395401
2269.000000, 69.904671
2270.000000, 69.531670
2271.000000, 69.124290
2272.000000, 68.757599
2273.000000, 68.406075
2274.000000, 68.284729
2275.000000, 67.978218
2276.000000, 67.822929
2277.000000, 67.782043
2278.000000, 67.739746
2279.000000, 67.522057
2280.000000, 67.470078
2281.000000, 67.377762
2282.000000, 67.201080
2283.000000, 67.061172
2284.000000, 66.942879
2285.000000, 66.833130
2286.000000, 66.632690
2287.000000, 66.476379
2288.000000, 66.232376
2289.000000, 66.176918
2290.000000, 65.926552
2291.000000, 65.830978
2292.000000, 65.723869
2293.000000, 65.557693
2294.000000, 65.370689
2295.000000, 65.198761
2296.000000, 65.027466
2297.000000, 64.783157
2298.000000, 64.628639
2299.000000, 64.495323
2300.000000, 64.362877
2301.000000, 64.263542
2302.000000, 64.118675
2303.000000, 63.961040
2304.000000, 63.916927
2305.000000, 63.825798
2306.000000, 63.698780
2307.000000, 63.614738
2308.000000, 63.481438
2309.000000, 63.363720
2310.000000, 63.167107
2311.000000, 63.047714
2312.000000, 62.981289
2313.000000, 62.971294
2314.000000, 62.816746
2315.000000, 62.951523
2316.000000, 63.041420
2317.000000, 63.229954
2318.000000, 63.510132
2319.000000, 63.837994
2320.000000, 64.148537
2321.000000, 64.605240
2322.000000, 64.997154
2323.000000, 65.325752
2324.000000, 65.699570
2325.000000, 65.930107
2326.000000, 66.207275
2327.000000, 66.489800
2328.000000, 66.858139
2329.000000, 67.005470
2330.000000, 67.262581
2331.000000, 67.512032
2332.000000, 67.732414
2333.000000, 67.902054
2334.000000, 68.180588
2335.000000, 68.330292
2336.000000, 68.469910
2337.000000, 68.600967
2338.000000, 68.711639
2339.000000, 68.806114
2340.000000, 68.941521
2341.000000, 69.013893
2342.000000, 68.986977
2343.000000, 69.101753
2344.000000, 69.118286
2345.000000, 69.164032
2346.000000, 69.250580
2347.000000, 69.316124
2348.000000, 69.293785
2349.000000, 69.446983
2350.000000, 69.448273
2351.000000, 69.497147
2352.000000, 69.618103
2353.000000, 69.717445
2354.000000, 69.751060
2355.000000, 70.010033
2356.000000, 69.994011
2357.000000, 70.102249
2358.000000, 70.154915
2359.000000, 70.260124
2360.000000, 70.291969
2361.000000, 70.377991
2362.000000, 70.345573
2363.000000, 70.379372
2364.000000, 70.520164
2365.000000, 70.547981
2366.000000, 70.674278
2367.000000, 70.697144
2368.000000, 70.839424
2369.000000, 70.951904
2370.000000, 71.004616
2371.000000, 71.181725
2372.000000, 71.277710
2373.000000, 71.400047
2374.000000, 71.461990
2375.000000, 71.508232
2376.000000, 71.737946
2377.000000, 71.708351
2378.000000, 71.782913
2379.000000, 71.955376
2380.000000, 71.968185
2381.000000, 72.021446
2382.000000, 71.960732
2383.000000, 72.005974
2384.000000, 71.932152
2385.000000, 71.894989
2386.000000, 71.883751
2387.000000, 71.897385
2388.000000, 71.917877
2389.000000, 71.880486
2390.000000, 71.893517
2391.000000, 71.841782
2392.000000, 71.731209
2393.000000, 71.761902
2394.000000, 71.674553
2395.000000, 71.690483
2396.000000, 71.596901
2397.000000, 71.587845
2398.000000, 71.453346
2399.000000, 71.475906
2400.000000, 71.503136
2401.000000, 71.565384
2402.000000, 71.508202
2403.000000, 71.587875
2404.000000, 71.688286
2405.000000, 71.686951
2406.000000, 72.002365
2407.000000, 72.132866
2408.000000, 72.312805
2409.000000, 72.420349
2410.000000, 72.648376
2411.000000, 72.780670
2412.000000, 72.943481
2413.000000, 73.121407
2414.000000, 73.062447
2415.000000, 73.305077
2416.000000, 73.405029
2417.000000, 73.394447
2418.000000, 73.565285
2419.000000, 73.565498
2420.000000, 73.611481
2421.000000, 73.640312
2422.000000, 73.698112
2423.000000, 73.623558
2424.000000, 73.636162
2425.000000, 73.662468
2426.000000, 73.657913
2427.000000, 73.578453
2428.000000, 73.501167
2429.000000, 73.473358
2430.000000, 73.406380
2431.000000, 73.388748
2432.000000, 73.286613
2433.000000, 73.132423
2434.000000, 73.050133
2435.000000, 72.815483
2436.000000, 72.724442
2437.000000, 72.649780
2438.000000, 72.430626
2439.000000, 72.076126
2440.000000, 71.845367
2441.000000, 71.663193
2442.000000, 71.287910
2443.000000, 70.882233
2444.000000, 70.625923
2445.000000, 70.184166
2446.000000, 69.793488
2447.000000, 69.444878
2448.000000, 69.050873
2449.000000, 68.594376
2450.000000, 68.267838
2451.000000, 67.879379
2452.000000, 67.459244
2453.000000, 67.165161
2454.000000, 66.734337
2455.000000, 66.449867
2456.000000, 66.082748
2457.000000, 65.714035
2458.000000, 65.296944
2459.000000, 65.035858
2460.000000, 64.925018
2461.000000, 64.716309
2462.000000, 64.721809
2463.000000, 64.832306
2464.000000, 64.830910
2465.000000, 65.005981
2466.000000, 65.292061
2467.000000, 65.575394
2468.000000, 65.855843
2469.000000, 66.234917
2470.000000, 66.553574
2471.000000, 66.760948
2472.000000, 67.022743
2473.000000, 67.391861
2474.000000, 67.615898
2475.000000, 67.953224
2476.000000, 68.174759
2477.000000, 68.325516
2478.000000, 68.420624
2479.000000, 68.625809
2480.000000, 68.695923
2481.000000, 68.778526
2482.000000, 68.824615
2483.000000, 68.797577
2484.000000, 68.657333
2485.000000, 68.705734
2486.000000, 68.601379
2487.000000, 68.550568
2488.000000, 68.446487
2489.000000, 68.365601
2490.000000, 68.334427
2491.000000, 68.238579
2492.000000, 68.158218
2493.000000, 68.091026
2494.000000, 68.017403
2495.000000, 67.947479
2496.000000, 67.931183
2497.000000, 67.829208
2498.000000, 67.606209
2499.000000, 67.608940
2500.000000, 67.441437
2501.000000, 67.235580
2502.000000, 67.363663
2503.000000, 67.069420
2504.000000, 66.941032
2505.000000, 66.858582
2506.000000, 66.746346
2507.000000, 66.587448
2508.000000, 66.574860
2509.000000, 66.525009
2510.000000, 66.423157
2511.000000, 66.322052
2512.000000, 66.286224
2513.000000, 66.230888
2514.000000, 66.279915
2515.000000, 66.308746
2516.000000, 66.299286
2517.000000, 66.283508
2518.000000, 66.417358
2519.000000, 66.517769
2520.000000, 66.549789
2521.000000, 66.603905
2522.000000, 66.746376
2523.000000, 66.821220
2524.000000, 66.864594
2525.000000, 66.958984
2526.000000, 67.036072
2527.000000, 67.143135
2528.000000, 67.196175
2529.000000, 67.293556
2530.000000, 67.349068
2531.000000, 67.437057
2532.000000, 67.657127
2533.000000, 67.615265
2534.000000, 67.617149
2535.000000, 67.752304
2536.000000, 67.873962
2537.000000, 67.834625
2538.000000, 67.865860
2539.000000, 67.934799
2540.000000, 67.928505
2541.000000, 67.960449
2542.000000, 67.980568
2543.000000, 67.973587
2544.000000, 67.900101
2545.000000, 67.959770
2546.000000, 68.064110
2547.000000, 67.973007
2548.000000, 67.895493
2549.000000, 67.939880
2550.000000, 67.980232
2551.000000, 67.909653
2552.000000, 67.812897
2553.000000, 67.925156
2554.000000, 67.861984
2555.000000, 67.894341
2556.000000, 67.840645
2557.000000, 67.908928
2558.000000, 67.821365
2559.000000, 67.936409
2560.000000, 68.042000
2561.000000, 67.949745
2562.000000, 68.014336
2563.000000, 68.059448
2564.000000, 68.119362
2565.000000, 68.000259
2566.000000, 68.226677
2567.000000, 68.282570
2568.000000, 68.236290
2569.000000, 68.297173
2570.000000, 68.353180
2571.000000, 68.390160
2572.000000, 68.462517
2573.000000, 68.466682
2574.000000, 68.627396
2575.000000, 68.497780
2576.000000, 68.676727
2577.000000, 68.554520
2578.000000, 68.621407
2579.000000, 68.661263
2580.000000, 68.796249
2581.000000, 68.973419
2582.000000, 69.005608
2583.000000, 69.155640
2584.000000, 69.330154
2585.000000, 69.551483
2586.000000, 69.692627
2587.000000, 69.834793
2588.000000, 70.044861
2589.000000, 70.201714
2590.000000, 70.324844
2591.000000, 70.470139
2592.000000, 70.589699
2593.000000, 70.747261
2594.000000, 70.948402
2595.000000, 71.078545
2596.000000, 71.199722
2597.000000, 71.374496
2598.000000, 71.556770
2599.000000, 71.631584
2600.000000, 71.578262
