# Wavelength  (nm), Transmission (%)
250.000000, 1.447846
251.000000, 1.148685
252.000000, 0.948101
253.000000, 1.642062
254.000000, 0.242698
255.000000, 0.804432
256.000000, 1.027570
257.000000, 1.018645
258.000000, 0.705947
259.000000, 0.603515
260.000000, 1.005150
261.000000, 0.763260
262.000000, 0.373295
263.000000, 0.670832
264.000000, 1.053189
265.000000, 1.569098
266.000000, 1.273070
267.000000, 0.824447
268.000000, 0.388348
269.000000, 1.099937
270.000000, 0.493140
271.000000, 1.141587
272.000000, 0.367100
273.000000, 0.813632
274.000000, 0.566569
275.000000, 0.570080
276.000000, 2.419383
277.000000, 0.828071
278.000000, 2.069012
279.000000, 0.649605
280.000000, 0.882081
281.000000, 0.973002
282.000000, 2.964913
283.000000, 0.768065
284.000000, 1.849015
285.000000, 1.252062
286.000000, 1.422798
287.000000, 1.682144
288.000000, 1.479859
289.000000, 0.802394
290.000000, 2.242414
291.000000, 0.505607
292.000000, 0.526824
293.000000, 1.257962
294.000000, 0.986523
295.000000, 0.233321
296.000000, 1.849453
297.000000, 0.394079
298.000000, 0.749088
299.000000, 1.045857
300.000000, 0.627618
301.000000, 1.631145
302.000000, 1.659588
303.000000, 0.553026
304.000000, 0.772794
305.000000, 1.196305
306.000000, 0.515264
307.000000, 1.308746
308.000000, 1.040581
309.000000, 1.472980
310.000000, 1.549045
311.000000, 0.699751
312.000000, 0.999179
313.000000, 1.538487
314.000000, 3.136765
315.000000, 3.192524
316.000000, 3.411973
317.000000, 5.684364
318.000000, 6.124892
319.000000, 9.323166
320.000000, 10.270404
321.000000, 13.805340
322.000000, 16.443712
323.000000, 21.315625
324.000000, 24.706765
325.000000, 27.708871
326.000000, 27.713929
327.000000, 25.948537
328.000000, 20.253074
329.000000, 14.887119
330.000000, 9.723894
331.000000, 5.279347
332.000000, 3.664064
333.000000, 1.528081
334.000000, 1.006889
335.000000, 0.400806
336.000000, 0.601123
337.000000, 0.690997
338.000000, 0.517018
339.000000, 0.487965
340.000000, 0.615522
341.000000, 0.078180
342.000000, 2.274214
343.000000, 0.186629
344.000000, 0.834951
345.000000, 0.709049
346.000000, 1.097145
347.000000, 0.632964
348.000000, 0.782978
349.000000, 0.893519
350.000000, 2.074764
351.000000, 3.413532
352.000000, 5.109074
353.000000, 6.745850
354.000000, 7.420782
355.000000, 7.391375
356.000000, 7.641998
357.000000, 8.942034
358.000000, 10.239844
359.000000, 12.350214
360.000000, 13.206889
361.000000, 14.474097
362.000000, 14.749986
363.000000, 15.726155
364.000000, 16.307630
365.000000, 16.601156
366.000000, 16.916172
367.000000, 16.846237
368.000000, 15.589606
369.000000, 14.625741
370.000000, 13.142288
371.000000, 11.904104
372.000000, 10.868231
373.000000, 9.710817
374.000000, 9.114959
375.000000, 8.389603
376.000000, 7.915580
377.000000, 7.230214
378.000000, 6.676778
379.000000, 5.822918
380.000000, 5.063404
381.000000, 4.284008
382.000000, 3.420359
383.000000, 2.768982
384.000000, 2.186180
385.000000, 1.620064
386.000000, 1.381546
387.000000, 1.108672
388.000000, 1.034095
389.000000, 0.721384
390.000000, 0.725105
391.000000, 0.811545
392.000000, 0.619742
393.000000, 0.574413
394.000000, 0.675308
395.000000, 0.499334
396.000000, 0.504241
397.000000, 0.510150
398.000000, 0.652512
399.000000, 0.573774
400.000000, 0.668842
401.000000, 0.614434
402.000000, 0.586191
403.000000, 0.578629
404.000000, 0.550028
405.000000, 0.491608
406.000000, 0.405528
407.000000, 0.490909
408.000000, 0.320066
409.000000, 0.329856
410.000000, 0.315952
411.000000, 0.244254
412.000000, 0.246663
413.000000, 0.236989
414.000000, 0.256798
415.000000, 0.271229
416.000000, 0.236705
417.000000, 0.318237
418.000000, 0.301351
419.000000, 0.296478
420.000000, 0.263900
421.000000, 0.292643
422.000000, 0.206451
423.000000, 0.149930
424.000000, 0.197328
425.000000, 0.130486
426.000000, 0.150578
427.000000, 0.106069
428.000000, 0.180234
429.000000, 0.193939
430.000000, 0.175846
431.000000, 0.173374
432.000000, 0.209865
433.000000, 0.206396
434.000000, 0.261079
435.000000, 0.278004
436.000000, 0.301087
437.000000, 0.272595
438.000000, 0.241301
439.000000, 0.147531
440.000000, 0.105541
441.000000, 0.109885
442.000000, 0.046162
443.000000, 0.032795
444.000000, 0.008557
445.000000, 0.076811
446.000000, 0.018686
447.000000, 0.070837
448.000000, 0.022609
449.000000, 0.024229
450.000000, 0.049017
451.000000, 0.029770
452.000000, 0.082018
453.000000, 0.052352
454.000000, 0.089320
455.000000, 0.062740
456.000000, 0.051955
457.000000, 0.032464
458.000000, 0.004957
459.000000, 0.042854
460.000000, 0.092446
461.000000, 0.018031
462.000000, 0.045590
463.000000, 0.048138
464.000000, 0.128402
465.000000, 0.129848
466.000000, 0.141147
467.000000, 0.149149
468.000000, 0.146250
469.000000, 0.109769
470.000000, 0.075222
471.000000, 0.049825
472.000000, 0.059840
473.000000, 0.030227
474.000000, 0.031256
475.000000, 0.016701
476.000000, 0.032839
477.000000, 0.047314
478.000000, 0.013316
479.000000, 0.046767
480.000000, 0.023025
481.000000, 0.047826
482.000000, 0.012581
483.000000, 0.022852
484.000000, 0.007811
485.000000, 0.061216
486.000000, 0.010030
487.000000, 0.045849
488.000000, 0.022231
489.000000, 0.042993
490.000000, 0.031280
491.000000, 0.024498
492.000000, 0.039085
493.000000, 0.048111
494.000000, 0.054816
495.000000, 0.073692
496.000000, 0.082664
497.000000, 0.121518
498.000000, 0.177558
499.000000, 0.156767
500.000000, 0.155079
501.000000, 0.117329
502.000000, 0.093305
503.000000, 0.097859
504.000000, 0.052739
505.000000, 0.044278
506.000000, 0.028580
507.000000, 0.034565
508.000000, 0.038989
509.000000, 0.076871
510.000000, 0.052659
511.000000, 0.045937
512.000000, 0.066187
513.000000, 0.070409
514.000000, 0.061667
515.000000, 0.077913
516.000000, 0.073429
517.000000, 0.079763
518.000000, 0.065970
519.000000, 0.050623
520.000000, 0.045314
521.000000, 0.036082
522.000000, 0.046846
523.000000, 0.032030
524.000000, 0.037015
525.000000, 0.022547
526.000000, 0.033231
527.000000, 0.002992
528.000000, 0.018888
529.000000, 0.010737
530.000000, 0.029561
531.000000, 0.048774
532.000000, 0.055227
533.000000, 0.098450
534.000000, 0.105572
535.000000, 0.112973
536.000000, 0.120967
537.000000, 0.104900
538.000000, 0.073583
539.000000, 0.081776
540.000000, 0.057326
541.000000, 0.052360
542.000000, 0.052699
543.000000, 0.044870
544.000000, 0.070227
545.000000, 0.097087
546.000000, 0.124940
547.000000, 0.174383
548.000000, 0.214987
549.000000, 0.277439
550.000000, 0.286649
551.000000, 0.276290
552.000000, 0.238431
553.000000, 0.191132
554.000000, 0.134731
555.000000, 0.076781
556.000000, 0.043863
557.000000, 0.037344
558.000000, 0.037931
559.000000, 0.021935
560.000000, 0.030018
561.000000, 0.028954
562.000000, 0.036795
563.000000, 0.029464
564.000000, 0.042000
565.000000, 0.035691
566.000000, 0.047539
567.000000, 0.040142
568.000000, 0.029696
569.000000, 0.045702
570.000000, 0.065891
571.000000, 0.098222
572.000000, 0.137541
573.000000, 0.176660
574.000000, 0.224542
575.000000, 0.256926
576.000000, 0.275164
577.000000, 0.272217
578.000000, 0.236486
579.000000, 0.158301
580.000000, 0.111349
581.000000, 0.067823
582.000000, 0.045040
583.000000, 0.021851
584.000000, 0.013702
585.000000, 0.006689
586.000000, 0.033632
587.000000, 0.048912
588.000000, 0.068546
589.000000, 0.079471
590.000000, 0.117541
591.000000, 0.095765
592.000000, 0.079285
593.000000, 0.065972
594.000000, 0.051696
595.000000, 0.049211
596.000000, 0.028839
597.000000, 0.019543
598.000000, 0.013027
599.000000, 0.026095
600.000000, 0.020358
601.000000, 0.025354
602.000000, 0.025558
603.000000, 0.020170
604.000000, 0.027361
605.000000, 0.018273
606.000000, 0.027040
607.000000, 0.014153
608.000000, 0.002637
609.000000, 0.027622
610.000000, 0.020155
611.000000, 0.010902
612.000000, 0.038954
613.000000, 0.008721
614.000000, 0.031940
615.000000, 0.011492
616.000000, 0.040724
617.000000, 0.032511
618.000000, 0.017715
619.000000, 0.010857
620.000000, 0.017018
621.000000, 0.022138
622.000000, 0.046563
623.000000, 0.011989
624.000000, 0.018337
625.000000, 0.032127
626.000000, 0.014873
627.000000, 0.034492
628.000000, 0.056987
629.000000, 0.030339
630.000000, 0.055851
631.000000, 0.076292
632.000000, 0.228855
633.000000, 0.563407
634.000000, 1.169246
635.000000, 2.035324
636.000000, 3.123840
637.000000, 4.251842
638.000000, 5.435528
639.000000, 6.682342
640.000000, 8.102345
641.000000, 9.814981
642.000000, 11.818481
643.000000, 13.918994
644.000000, 16.004695
645.000000, 17.950773
646.000000, 19.840171
647.000000, 21.936804
648.000000, 24.269967
649.000000, 26.844290
650.000000, 29.522903
651.000000, 32.040681
652.000000, 34.293430
653.000000, 36.220051
654.000000, 37.924814
655.000000, 39.486764
656.000000, 40.938591
657.000000, 42.403292
658.000000, 43.934910
659.000000, 45.552642
660.000000, 47.315093
661.000000, 49.245581
662.000000, 51.525817
663.000000, 54.250370
664.000000, 57.405282
665.000000, 61.043242
666.000000, 65.129693
667.000000, 69.524670
668.000000, 73.889207
669.000000, 78.079943
670.000000, 81.835045
671.000000, 85.034563
672.000000, 87.559081
673.000000, 89.536074
674.000000, 91.095900
675.000000, 92.349394
676.000000, 93.327850
677.000000, 94.203723
678.000000, 94.961349
679.000000, 95.648237
680.000000, 96.104747
681.000000, 96.400610
682.000000, 96.661280
683.000000, 96.881110
684.000000, 97.046511
685.000000, 97.261221
686.000000, 97.444242
687.000000, 97.638238
688.000000, 97.787430
689.000000, 97.861682
690.000000, 97.902947
691.000000, 97.906010
692.000000, 97.965708
693.000000, 97.994933
694.000000, 98.042657
695.000000, 98.057046
696.000000, 98.016063
697.000000, 97.994831
698.000000, 97.904886
699.000000, 97.782282
700.000000, 97.725848
701.000000, 97.607614
702.000000, 97.518562
703.000000, 97.429332
704.000000, 97.367828
705.000000, 97.289929
706.000000, 97.217352
707.000000, 97.123380
708.000000, 97.081368
709.000000, 97.013551
710.000000, 97.023541
711.000000, 97.067820
712.000000, 97.111410
713.000000, 97.179935
714.000000, 97.208578
715.000000, 97.238882
716.000000, 97.280020
717.000000, 97.285314
718.000000, 97.237714
719.000000, 97.194958
720.000000, 97.063449
721.000000, 97.025513
722.000000, 97.052404
723.000000, 97.056786
724.000000, 97.145073
725.000000, 97.188028
726.000000, 97.241150
727.000000, 97.307233
728.000000, 97.350692
729.000000, 97.391062
730.000000, 97.447934
731.000000, 97.441915
732.000000, 97.493794
733.000000, 97.519384
734.000000, 97.541293
735.000000, 97.542137
736.000000, 97.607275
737.000000, 97.589615
738.000000, 97.593563
739.000000, 97.563023
740.000000, 97.532107
741.000000, 97.526065
742.000000, 97.462033
743.000000, 97.392833
744.000000, 97.376609
745.000000, 97.318578
746.000000, 97.293537
747.000000, 97.245843
748.000000, 97.263943
749.000000, 97.253086
750.000000, 97.228459
751.000000, 97.186835
752.000000, 97.211570
753.000000, 97.202520
754.000000, 97.219973
755.000000, 97.285263
756.000000, 97.354488
757.000000, 97.454647
758.000000, 97.576621
759.000000, 97.672430
760.000000, 97.795452
761.000000, 97.902113
762.000000, 97.926568
763.000000, 97.981134
764.000000, 97.995473
765.000000, 97.933205
766.000000, 97.874520
767.000000, 97.771908
768.000000, 97.677505
769.000000, 97.641439
770.000000, 97.551375
771.000000, 97.498583
772.000000, 97.485311
773.000000, 97.499745
774.000000, 97.531111
775.000000, 97.517470
776.000000, 97.532131
777.000000, 97.534022
778.000000, 97.511571
779.000000, 97.511849
780.000000, 97.441255
781.000000, 97.398125
782.000000, 97.398937
783.000000, 97.361743
784.000000, 97.362345
785.000000, 97.385930
786.000000, 97.429270
787.000000, 97.476827
788.000000, 97.528528
789.000000, 97.619197
790.000000, 97.641107
791.000000, 97.696962
792.000000, 97.731086
793.000000, 97.722079
794.000000, 97.729592
795.000000, 97.697438
796.000000, 97.649563
797.000000, 97.564084
798.000000, 97.536496
799.000000, 97.496665
800.000000, 97.432216
801.000000, 97.428644
802.000000, 97.413645
803.000000, 97.436624
804.000000, 97.456767
805.000000, 97.460933
806.000000, 97.481861
807.000000, 97.484274
808.000000, 97.482394
809.000000, 97.436154
810.000000, 97.405000
811.000000, 97.380465
812.000000, 97.391923
813.000000, 97.362794
814.000000, 97.353685
815.000000, 97.408054
816.000000, 97.438888
817.000000, 97.486431
818.000000, 97.532948
819.000000, 97.609851
820.000000, 97.643616
821.000000, 97.738816
822.000000, 97.748581
823.000000, 97.761401
824.000000, 97.751917
825.000000, 97.776361
826.000000, 97.693310
827.000000, 97.680845
828.000000, 97.614345
829.000000, 97.561675
830.000000, 97.527122
831.000000, 97.497023
832.000000, 97.463032
833.000000, 97.451736
834.000000, 97.467068
835.000000, 97.507904
836.000000, 97.594390
837.000000, 97.630234
838.000000, 97.670111
839.000000, 97.741693
840.000000, 97.763748
841.000000, 97.779537
842.000000, 97.822564
843.000000, 97.824255
844.000000, 97.832515
845.000000, 97.809501
846.000000, 97.816450
847.000000, 97.815866
848.000000, 97.807503
849.000000, 97.812767
850.000000, 97.836946
851.000000, 97.842443
852.000000, 97.884129
853.000000, 97.911344
854.000000, 97.953520
855.000000, 97.982011
856.000000, 98.008913
857.000000, 98.006738
858.000000, 98.024364
859.000000, 98.036053
860.000000, 98.026740
861.000000, 98.021003
862.000000, 98.016584
863.000000, 98.019634
864.000000, 98.006241
865.000000, 98.005423
866.000000, 98.004205
867.000000, 98.028661
868.000000, 98.053328
869.000000, 98.078045
870.000000, 98.092603
871.000000, 98.090455
872.000000, 98.097870
873.000000, 98.096092
874.000000, 98.082803
875.000000, 98.048237
876.000000, 98.015004
877.000000, 97.990426
878.000000, 97.918176
879.000000, 97.854717
880.000000, 97.794828
881.000000, 97.767970
882.000000, 97.716253
883.000000, 97.672471
884.000000, 97.678148
885.000000, 97.698493
886.000000, 97.699405
887.000000, 97.736722
888.000000, 97.775002
889.000000, 97.830021
890.000000, 97.884183
891.000000, 97.948097
892.000000, 97.973005
893.000000, 98.003152
894.000000, 98.032062
895.000000, 98.040085
896.000000, 98.010235
897.000000, 97.999161
898.000000, 97.980056
899.000000, 97.924146
900.000000, 97.888702
901.000000, 97.824629
902.000000, 97.791785
903.000000, 97.750774
904.000000, 97.749655
905.000000, 97.729076
906.000000, 97.724299
907.000000, 97.741734
908.000000, 97.770648
909.000000, 97.805398
910.000000, 97.822047
911.000000, 97.854317
912.000000, 97.880095
913.000000, 97.890005
914.000000, 97.899613
915.000000, 97.881457
916.000000, 97.865516
917.000000, 97.816201
918.000000, 97.781060
919.000000, 97.719498
920.000000, 97.642745
921.000000, 97.583519
922.000000, 97.520206
923.000000, 97.472320
924.000000, 97.421549
925.000000, 97.397693
926.000000, 97.398678
927.000000, 97.392690
928.000000, 97.424447
929.000000, 97.462238
930.000000, 97.497217
931.000000, 97.534006
932.000000, 97.586589
933.000000, 97.643618
934.000000, 97.678427
935.000000, 97.719410
936.000000, 97.715382
937.000000, 97.725918
938.000000, 97.715761
939.000000, 97.689499
940.000000, 97.643326
941.000000, 97.604861
942.000000, 97.529835
943.000000, 97.476698
944.000000, 97.413949
945.000000, 97.363944
946.000000, 97.312214
947.000000, 97.284756
948.000000, 97.266990
949.000000, 97.265527
950.000000, 97.281165
951.000000, 97.316511
952.000000, 97.352867
953.000000, 97.406580
954.000000, 97.461298
955.000000, 97.533153
956.000000, 97.601852
957.000000, 97.680349
958.000000, 97.714192
959.000000, 97.779434
960.000000, 97.824440
961.000000, 97.853461
962.000000, 97.867311
963.000000, 97.886125
964.000000, 97.867143
965.000000, 97.881188
966.000000, 97.857588
967.000000, 97.837640
968.000000, 97.811694
969.000000, 97.800874
970.000000, 97.803939
971.000000, 97.813451
972.000000, 97.805364
973.000000, 97.830485
974.000000, 97.836193
975.000000, 97.885486
976.000000, 97.920929
977.000000, 97.972552
978.000000, 98.009568
979.000000, 98.048571
980.000000, 98.094034
981.000000, 98.123302
982.000000, 98.135976
983.000000, 98.145496
984.000000, 98.180501
985.000000, 98.152179
986.000000, 98.127393
987.000000, 98.117784
988.000000, 98.078962
989.000000, 98.060872
990.000000, 98.014670
991.000000, 97.966596
992.000000, 97.938226
993.000000, 97.906563
994.000000, 97.889576
995.000000, 97.875026
996.000000, 97.851631
997.000000, 97.867284
998.000000, 97.894446
999.000000, 97.940026
1000.000000, 97.950757
1001.000000, 97.975562
1002.000000, 98.024357
1003.000000, 98.049128
1004.000000, 98.101677
1005.000000, 98.135043
1006.000000, 98.167480
1007.000000, 98.181539
1008.000000, 98.210923
1009.000000, 98.206084
1010.000000, 98.213352
1011.000000, 98.186801
1012.000000, 98.179745
1013.000000, 98.169373
1014.000000, 98.130794
1015.000000, 98.087061
1016.000000, 98.059538
1017.000000, 98.046082
1018.000000, 98.005256
1019.000000, 97.975958
1020.000000, 97.972852
1021.000000, 97.993850
1022.000000, 97.983617
1023.000000, 98.002136
1024.000000, 98.003278
1025.000000, 98.038321
1026.000000, 98.088727
1027.000000, 98.134247
1028.000000, 98.163670
1029.000000, 98.206315
1030.000000, 98.242478
1031.000000, 98.278960
1032.000000, 98.319922
1033.000000, 98.329335
1034.000000, 98.347666
1035.000000, 98.352386
1036.000000, 98.342016
1037.000000, 98.315266
1038.000000, 98.275622
1039.000000, 98.220697
1040.000000, 98.180776
1041.000000, 98.114555
1042.000000, 98.047562
1043.000000, 97.973938
1044.000000, 97.891470
1045.000000, 97.839747
1046.000000, 97.765956
1047.000000, 97.696050
1048.000000, 97.649126
1049.000000, 97.591049
1050.000000, 97.322666
1051.000000, 97.286574
1052.000000, 97.249069
1053.000000, 97.240566
1054.000000, 97.240424
1055.000000, 97.208745
1056.000000, 97.223234
1057.000000, 97.223510
1058.000000, 97.246564
1059.000000, 97.226993
1060.000000, 97.224947
1061.000000, 97.233213
1062.000000, 97.238077
1063.000000, 97.228067
1064.000000, 97.211044
1065.000000, 97.211076
1066.000000, 97.211989
1067.000000, 97.183223
1068.000000, 97.184038
1069.000000, 97.163613
1070.000000, 97.148308
1071.000000, 97.153086
1072.000000, 97.122752
1073.000000, 97.112072
1074.000000, 97.098738
1075.000000, 97.086539
1076.000000, 97.079447
1077.000000, 97.080843
1078.000000, 97.083282
1079.000000, 97.140839
1080.000000, 97.107460
1081.000000, 97.198346
1082.000000, 97.224798
1083.000000, 97.228845
1084.000000, 97.260880
1085.000000, 97.298046
1086.000000, 97.295125
1087.000000, 97.336934
1088.000000, 97.338289
1089.000000, 97.350041
1090.000000, 97.354365
1091.000000, 97.371427
1092.000000, 97.400660
1093.000000, 97.365943
1094.000000, 97.354198
1095.000000, 97.315058
1096.000000, 97.306698
1097.000000, 97.277838
1098.000000, 97.246616
1099.000000, 97.188715
1100.000000, 97.129652
1101.000000, 97.214670
1102.000000, 97.071721
1103.000000, 97.109891
1104.000000, 97.061665
1105.000000, 97.059384
1106.000000, 97.048782
1107.000000, 97.042291
1108.000000, 97.027024
1109.000000, 97.102497
1110.000000, 97.061078
1111.000000, 97.116107
1112.000000, 97.171632
1113.000000, 97.114388
1114.000000, 97.268716
1115.000000, 97.287580
1116.000000, 97.319605
1117.000000, 97.312263
1118.000000, 97.409958
1119.000000, 97.505170
1120.000000, 97.530873
1121.000000, 97.441022
1122.000000, 97.556663
1123.000000, 97.567832
1124.000000, 97.585476
1125.000000, 97.539378
1126.000000, 97.553554
1127.000000, 97.494745
1128.000000, 97.563384
1129.000000, 97.504069
1130.000000, 97.447896
1131.000000, 97.440902
1132.000000, 97.358881
1133.000000, 97.304434
1134.000000, 97.355806
1135.000000, 97.215215
1136.000000, 97.199985
1137.000000, 97.265318
1138.000000, 97.119107
1139.000000, 97.158625
1140.000000, 97.132425
1141.000000, 97.167536
1142.000000, 97.138093
1143.000000, 97.159395
1144.000000, 97.195347
1145.000000, 97.193701
1146.000000, 97.233511
1147.000000, 97.267802
1148.000000, 97.313001
1149.000000, 97.361961
1150.000000, 97.421571
1151.000000, 97.474475
1152.000000, 97.470646
1153.000000, 97.554152
1154.000000, 97.639269
1155.000000, 97.543380
1156.000000, 97.639392
1157.000000, 97.720806
1158.000000, 97.747855
1159.000000, 97.606544
1160.000000, 97.734749
1161.000000, 97.754953
1162.000000, 97.722621
1163.000000, 97.726384
1164.000000, 97.722104
1165.000000, 97.678056
1166.000000, 97.689111
1167.000000, 97.664020
1168.000000, 97.642024
1169.000000, 97.624801
1170.000000, 97.603565
1171.000000, 97.607300
1172.000000, 97.671557
1173.000000, 97.475697
1174.000000, 97.555519
1175.000000, 97.563801
1176.000000, 97.597858
1177.000000, 97.614046
1178.000000, 97.529753
1179.000000, 97.592651
1180.000000, 97.623441
1181.000000, 97.667958
1182.000000, 97.685050
1183.000000, 97.773967
1184.000000, 97.703325
1185.000000, 97.780039
1186.000000, 97.813483
1187.000000, 97.833115
1188.000000, 97.869656
1189.000000, 97.910054
1190.000000, 98.053068
1191.000000, 97.770216
1192.000000, 97.951658
1193.000000, 97.973483
1194.000000, 97.988058
1195.000000, 97.997275
1196.000000, 97.955554
1197.000000, 97.970757
1198.000000, 97.974702
1199.000000, 97.950246
1200.000000, 98.068745
1201.000000, 97.912021
1202.000000, 97.975548
1203.000000, 97.948197
1204.000000, 97.902934
1205.000000, 97.949635
1206.000000, 97.895003
1207.000000, 97.894979
1208.000000, 97.845721
1209.000000, 97.833119
1210.000000, 97.812639
1211.000000, 97.875428
1212.000000, 97.850916
1213.000000, 97.828738
1214.000000, 97.850808
1215.000000, 97.838470
1216.000000, 97.845178
1217.000000, 97.914346
1218.000000, 97.894880
1219.000000, 97.934407
1220.000000, 97.948384
1221.000000, 97.991324
1222.000000, 97.984096
1223.000000, 98.006734
1224.000000, 98.081017
1225.000000, 98.038648
1226.000000, 98.033486
1227.000000, 98.090269
1228.000000, 98.076064
1229.000000, 98.081890
1230.000000, 98.061525
1231.000000, 98.029319
1232.000000, 98.072645
1233.000000, 98.032690
1234.000000, 98.000994
1235.000000, 97.976108
1236.000000, 97.901117
1237.000000, 97.987611
1238.000000, 97.888460
1239.000000, 97.847641
1240.000000, 97.814826
1241.000000, 97.781430
1242.000000, 97.804474
1243.000000, 97.710312
1244.000000, 97.727696
1245.000000, 97.670765
1246.000000, 97.584173
1247.000000, 97.624850
1248.000000, 97.625225
1249.000000, 97.598909
1250.000000, 97.600566
1251.000000, 97.544955
1252.000000, 97.616652
1253.000000, 97.639954
1254.000000, 97.619227
1255.000000, 97.618091
1256.000000, 97.642877
1257.000000, 97.734938
1258.000000, 97.725049
1259.000000, 97.767847
1260.000000, 97.722762
1261.000000, 97.792016
1262.000000, 97.801969
1263.000000, 97.843616
1264.000000, 97.883179
1265.000000, 97.926449
1266.000000, 97.919693
1267.000000, 97.956607
1268.000000, 97.958628
1269.000000, 97.979513
1270.000000, 97.946479
1271.000000, 97.957694
1272.000000, 97.963296
1273.000000, 97.988647
1274.000000, 97.944740
1275.000000, 97.945020
1276.000000, 97.930031
1277.000000, 97.912700
1278.000000, 97.893778
1279.000000, 97.875260
1280.000000, 97.872354
1281.000000, 97.833426
1282.000000, 97.814061
1283.000000, 97.777662
1284.000000, 97.776623
1285.000000, 97.758544
1286.000000, 97.740997
1287.000000, 97.737793
1288.000000, 97.752892
1289.000000, 97.733984
1290.000000, 97.720056
1291.000000, 97.727873
1292.000000, 97.725232
1293.000000, 97.740193
1294.000000, 97.775279
1295.000000, 97.784604
1296.000000, 97.773606
1297.000000, 97.827155
1298.000000, 97.856538
1299.000000, 97.877210
1300.000000, 97.909131
1301.000000, 97.910798
1302.000000, 97.968952
1303.000000, 98.012506
1304.000000, 98.004753
1305.000000, 98.059087
1306.000000, 98.092158
1307.000000, 98.085903
1308.000000, 98.094643
1309.000000, 98.108082
1310.000000, 98.110311
1311.000000, 98.113634
1312.000000, 98.122895
1313.000000, 98.139013
1314.000000, 98.007228
1315.000000, 98.079105
1316.000000, 98.053139
1317.000000, 98.020205
1318.000000, 98.001886
1319.000000, 97.963359
1320.000000, 97.943022
1321.000000, 97.890809
1322.000000, 97.864332
1323.000000, 97.797162
1324.000000, 97.767020
1325.000000, 97.722986
1326.000000, 97.693928
1327.000000, 97.641116
1328.000000, 97.592787
1329.000000, 97.537322
1330.000000, 97.510601
1331.000000, 97.484367
1332.000000, 97.445244
1333.000000, 97.391612
1334.000000, 97.394839
1335.000000, 97.377737
1336.000000, 97.348838
1337.000000, 97.324808
1338.000000, 97.327714
1339.000000, 97.309051
1340.000000, 97.310457
1341.000000, 97.280932
1342.000000, 97.309274
1343.000000, 97.311676
1344.000000, 97.297428
1345.000000, 97.317159
1346.000000, 97.297002
1347.000000, 97.323996
1348.000000, 97.338440
1349.000000, 97.344421
1350.000000, 97.363382
1351.000000, 97.377165
1352.000000, 97.373609
1353.000000, 97.406167
1354.000000, 97.398603
1355.000000, 97.404228
1356.000000, 97.377640
1357.000000, 97.377956
1358.000000, 97.380363
1359.000000, 97.392906
1360.000000, 97.346097
1361.000000, 97.312710
1362.000000, 97.300307
1363.000000, 97.248489
1364.000000, 97.201394
1365.000000, 97.169435
1366.000000, 97.140383
1367.000000, 97.026854
1368.000000, 96.967708
1369.000000, 96.900937
1370.000000, 96.802898
1371.000000, 96.691225
1372.000000, 96.588840
1373.000000, 96.458718
1374.000000, 96.343854
1375.000000, 96.222452
1376.000000, 96.051698
1377.000000, 95.954918
1378.000000, 95.836113
1379.000000, 95.693337
1380.000000, 95.612878
1381.000000, 95.470724
1382.000000, 95.407906
1383.000000, 95.340837
1384.000000, 95.308385
1385.000000, 95.346913
1386.000000, 95.370417
1387.000000, 95.450718
1388.000000, 95.488072
1389.000000, 95.575620
1390.000000, 95.662560
1391.000000, 95.755001
1392.000000, 95.908539
1393.000000, 95.956985
1394.000000, 96.078185
1395.000000, 96.189666
1396.000000, 96.255469
1397.000000, 96.345641
1398.000000, 96.423730
1399.000000, 96.543691
1400.000000, 96.618762
1401.000000, 96.712752
1402.000000, 96.763917
1403.000000, 96.854296
1404.000000, 96.972597
1405.000000, 96.925627
1406.000000, 96.978870
1407.000000, 97.062625
1408.000000, 97.068519
1409.000000, 97.105341
1410.000000, 97.094592
1411.000000, 97.149577
1412.000000, 97.116945
1413.000000, 97.172647
1414.000000, 97.190644
1415.000000, 97.165792
1416.000000, 97.190427
1417.000000, 97.158698
1418.000000, 97.161065
1419.000000, 97.157950
1420.000000, 97.154185
1421.000000, 97.184970
1422.000000, 97.069207
1423.000000, 97.073375
1424.000000, 97.062865
1425.000000, 97.070931
1426.000000, 97.039450
1427.000000, 97.057961
1428.000000, 97.058063
1429.000000, 97.065862
1430.000000, 97.049155
1431.000000, 97.044956
1432.000000, 97.078393
1433.000000, 97.055726
1434.000000, 97.082042
1435.000000, 97.086733
1436.000000, 97.112085
1437.000000, 97.124369
1438.000000, 97.157301
1439.000000, 97.187242
1440.000000, 97.205715
1441.000000, 97.226814
1442.000000, 97.268782
1443.000000, 97.266896
1444.000000, 97.305811
1445.000000, 97.340367
1446.000000, 97.352888
1447.000000, 97.387530
1448.000000, 97.416624
1449.000000, 97.428926
1450.000000, 97.464627
1451.000000, 97.472818
1452.000000, 97.515699
1453.000000, 97.515988
1454.000000, 97.551800
1455.000000, 97.529611
1456.000000, 97.568627
1457.000000, 97.598713
1458.000000, 97.588920
1459.000000, 97.587218
1460.000000, 97.594081
1461.000000, 97.572533
1462.000000, 97.565145
1463.000000, 97.590785
1464.000000, 97.474578
1465.000000, 97.522087
1466.000000, 97.510504
1467.000000, 97.581410
1468.000000, 97.469839
1469.000000, 97.460854
1470.000000, 97.416873
1471.000000, 97.410904
1472.000000, 97.398032
1473.000000, 97.340658
1474.000000, 97.341382
1475.000000, 97.292646
1476.000000, 97.287682
1477.000000, 97.275442
1478.000000, 97.247675
1479.000000, 97.265356
1480.000000, 97.248838
1481.000000, 97.219508
1482.000000, 97.199547
1483.000000, 97.165842
1484.000000, 97.194281
1485.000000, 97.199666
1486.000000, 97.210442
1487.000000, 97.210179
1488.000000, 97.232972
1489.000000, 97.206509
1490.000000, 97.224442
1491.000000, 97.244239
1492.000000, 97.274248
1493.000000, 97.289664
1494.000000, 97.326711
1495.000000, 97.356540
1496.000000, 97.317581
1497.000000, 97.379267
1498.000000, 97.412150
1499.000000, 97.453092
1500.000000, 97.488400
1501.000000, 97.490914
1502.000000, 97.469492
1503.000000, 97.531583
1504.000000, 97.555453
1505.000000, 97.624913
1506.000000, 97.563445
1507.000000, 97.580497
1508.000000, 97.589713
1509.000000, 97.638476
1510.000000, 97.624078
1511.000000, 97.629956
1512.000000, 97.688001
1513.000000, 97.703020
1514.000000, 97.589865
1515.000000, 97.589713
1516.000000, 97.632256
1517.000000, 97.624458
1518.000000, 97.595710
1519.000000, 97.604324
1520.000000, 97.581013
1521.000000, 97.541192
1522.000000, 97.509972
1523.000000, 97.505729
1524.000000, 97.462458
1525.000000, 97.431598
1526.000000, 97.396457
1527.000000, 97.380777
1528.000000, 97.384633
1529.000000, 97.275591
1530.000000, 97.265937
1531.000000, 97.263732
1532.000000, 97.248380
1533.000000, 97.154597
1534.000000, 97.151225
1535.000000, 97.137564
1536.000000, 97.160467
1537.000000, 97.051831
1538.000000, 97.023109
1539.000000, 97.055442
1540.000000, 97.072378
1541.000000, 96.985118
1542.000000, 96.904414
1543.000000, 96.980498
1544.000000, 97.013446
1545.000000, 97.005254
1546.000000, 96.980901
1547.000000, 96.964263
1548.000000, 96.915839
1549.000000, 97.027804
1550.000000, 97.018916
1551.000000, 96.999480
1552.000000, 96.942691
1553.000000, 96.977024
1554.000000, 97.092346
1555.000000, 97.033124
1556.000000, 97.036253
1557.000000, 97.028647
1558.000000, 97.064603
1559.000000, 97.120179
1560.000000, 97.067314
1561.000000, 97.095286
1562.000000, 97.150730
1563.000000, 97.126865
1564.000000, 97.103859
1565.000000, 97.130414
1566.000000, 97.180955
1567.000000, 97.146314
1568.000000, 97.097844
1569.000000, 97.148236
1570.000000, 97.172050
1571.000000, 97.120183
1572.000000, 97.053199
1573.000000, 97.124247
1574.000000, 97.121815
1575.000000, 97.079538
1576.000000, 97.035245
1577.000000, 96.932893
1578.000000, 97.072841
1579.000000, 96.963333
1580.000000, 96.913797
1581.000000, 96.855777
1582.000000, 96.900538
1583.000000, 96.823042
1584.000000, 96.765928
1585.000000, 96.712068
1586.000000, 96.729971
1587.000000, 96.646293
1588.000000, 96.594966
1589.000000, 96.574769
1590.000000, 96.543277
1591.000000, 96.499263
1592.000000, 96.442470
1593.000000, 96.423943
1594.000000, 96.372655
1595.000000, 96.323657
1596.000000, 96.295561
1597.000000, 96.261315
1598.000000, 96.240186
1599.000000, 96.199964
1600.000000, 96.179103
1601.000000, 96.143690
1602.000000, 96.082424
1603.000000, 96.132988
1604.000000, 96.076810
1605.000000, 96.097945
1606.000000, 95.990653
1607.000000, 95.988281
1608.000000, 96.045988
1609.000000, 95.998387
1610.000000, 95.924035
1611.000000, 96.047186
1612.000000, 95.981243
1613.000000, 95.976191
1614.000000, 95.954996
1615.000000, 95.949675
1616.000000, 95.967399
1617.000000, 95.960386
1618.000000, 95.924970
1619.000000, 95.945691
1620.000000, 95.955366
1621.000000, 95.912450
1622.000000, 95.913560
1623.000000, 95.902511
1624.000000, 95.864866
1625.000000, 95.862184
1626.000000, 95.856048
1627.000000, 95.843451
1628.000000, 95.725807
1629.000000, 95.804521
1630.000000, 95.779143
1631.000000, 95.703969
1632.000000, 95.565280
1633.000000, 95.655982
1634.000000, 95.579452
1635.000000, 95.513797
1636.000000, 95.382527
1637.000000, 95.454479
1638.000000, 95.326009
1639.000000, 95.255744
1640.000000, 95.178158
1641.000000, 95.126909
1642.000000, 95.026698
1643.000000, 94.951441
1644.000000, 94.881104
1645.000000, 94.772091
1646.000000, 94.651618
1647.000000, 94.591334
1648.000000, 94.495490
1649.000000, 94.360716
1650.000000, 94.282052
1651.000000, 94.145184
1652.000000, 94.071080
1653.000000, 93.884603
1654.000000, 93.817796
1655.000000, 93.653648
1656.000000, 93.539697
1657.000000, 93.407160
1658.000000, 93.237752
1659.000000, 93.204798
1660.000000, 93.022912
1661.000000, 92.862356
1662.000000, 92.629311
1663.000000, 92.605096
1664.000000, 92.402298
1665.000000, 92.209911
1666.000000, 92.038534
1667.000000, 91.910244
1668.000000, 91.718444
1669.000000, 91.515973
1670.000000, 91.326887
1671.000000, 91.148186
1672.000000, 90.922474
1673.000000, 90.720320
1674.000000, 90.517118
1675.000000, 90.240069
1676.000000, 89.999619
1677.000000, 89.760182
1678.000000, 89.517271
1679.000000, 89.185100
1680.000000, 88.927139
1681.000000, 88.641189
1682.000000, 88.336116
1683.000000, 87.967204
1684.000000, 87.657510
1685.000000, 87.338843
1686.000000, 86.907322
1687.000000, 86.591134
1688.000000, 86.200929
1689.000000, 85.784787
1690.000000, 85.356472
1691.000000, 84.948773
1692.000000, 84.518284
1693.000000, 84.045274
1694.000000, 83.574022
1695.000000, 83.122376
1696.000000, 82.630856
1697.000000, 82.120203
1698.000000, 81.612743
1699.000000, 81.150874
1700.000000, 80.578497
1701.000000, 80.051134
1702.000000, 79.555565
1703.000000, 78.975589
1704.000000, 78.445474
1705.000000, 77.880425
1706.000000, 77.404521
1707.000000, 76.787789
1708.000000, 76.271487
1709.000000, 75.754367
1710.000000, 75.146674
1711.000000, 74.653911
1712.000000, 74.121788
1713.000000, 73.581011
1714.000000, 73.023837
1715.000000, 72.607796
1716.000000, 72.076995
1717.000000, 71.566646
1718.000000, 71.107839
1719.000000, 70.677737
1720.000000, 70.176021
1721.000000, 69.744655
1722.000000, 69.359893
1723.000000, 68.926659
1724.000000, 68.552541
1725.000000, 68.179747
1726.000000, 67.813751
1727.000000, 67.477553
1728.000000, 67.172025
1729.000000, 66.888324
1730.000000, 66.585818
1731.000000, 66.355057
1732.000000, 66.081842
1733.000000, 65.914672
1734.000000, 65.685810
1735.000000, 65.524747
1736.000000, 65.354855
1737.000000, 65.266116
1738.000000, 65.139741
1739.000000, 65.010639
1740.000000, 65.026894
1741.000000, 64.955540
1742.000000, 64.924653
1743.000000, 64.900787
1744.000000, 64.936377
1745.000000, 64.988032
1746.000000, 65.034327
1747.000000, 65.111916
1748.000000, 65.259390
1749.000000, 65.320612
1750.000000, 65.469683
1751.000000, 65.674411
1752.000000, 65.832927
1753.000000, 66.008510
1754.000000, 66.197387
1755.000000, 66.501838
1756.000000, 66.704471
1757.000000, 66.950909
1758.000000, 67.223232
1759.000000, 67.577826
1760.000000, 67.852956
1761.000000, 68.139315
1762.000000, 68.467258
1763.000000, 68.904750
1764.000000, 69.220144
1765.000000, 69.584062
1766.000000, 69.894746
1767.000000, 70.395985
1768.000000, 70.737556
1769.000000, 71.129955
1770.000000, 71.559031
1771.000000, 71.980939
1772.000000, 72.377969
1773.000000, 72.805806
1774.000000, 73.251357
1775.000000, 73.643011
1776.000000, 74.065559
1777.000000, 74.550011
1778.000000, 74.927316
1779.000000, 75.323608
1780.000000, 75.794988
1781.000000, 76.180863
1782.000000, 76.532752
1783.000000, 77.007038
1784.000000, 77.377564
1785.000000, 77.723579
1786.000000, 78.082642
1787.000000, 78.458015
1788.000000, 78.768127
1789.000000, 79.091943
1790.000000, 79.406890
1791.000000, 79.671312
1792.000000, 79.927991
1793.000000, 80.191942
1794.000000, 80.404046
1795.000000, 80.603364
1796.000000, 80.794889
1797.000000, 80.926423
1798.000000, 81.059559
1799.000000, 81.183092
1800.000000, 81.243874
1801.000000, 81.287753
1802.000000, 81.311510
1803.000000, 81.340160
1804.000000, 81.322456
1805.000000, 81.251113
1806.000000, 81.189425
1807.000000, 81.102211
1808.000000, 80.989974
1809.000000, 80.832013
1810.000000, 80.645011
1811.000000, 80.485127
1812.000000, 80.290095
1813.000000, 80.071203
1814.000000, 79.839567
1815.000000, 79.548141
1816.000000, 79.334638
1817.000000, 79.034965
1818.000000, 78.734777
1819.000000, 78.414294
1820.000000, 78.113553
1821.000000, 77.764952
1822.000000, 77.481187
1823.000000, 77.123746
1824.000000, 76.844353
1825.000000, 76.485491
1826.000000, 76.163906
1827.000000, 75.807790
1828.000000, 75.496539
1829.000000, 75.195708
1830.000000, 74.884538
1831.000000, 74.576290
1832.000000, 74.293011
1833.000000, 73.942093
1834.000000, 73.703296
1835.000000, 73.374631
1836.000000, 73.120846
1837.000000, 72.822661
1838.000000, 72.564095
1839.000000, 72.341150
1840.000000, 72.091050
1841.000000, 71.828158
1842.000000, 71.611508
1843.000000, 71.403340
1844.000000, 71.238429
1845.000000, 71.064245
1846.000000, 70.907600
1847.000000, 70.745870
1848.000000, 70.592879
1849.000000, 70.456733
1850.000000, 70.337561
1851.000000, 70.235935
1852.000000, 70.130502
1853.000000, 70.032561
1854.000000, 69.940167
1855.000000, 69.865744
1856.000000, 69.804328
1857.000000, 69.752164
1858.000000, 69.707220
1859.000000, 69.688275
1860.000000, 69.655367
1861.000000, 69.578273
1862.000000, 69.576439
1863.000000, 69.581559
1864.000000, 69.573741
1865.000000, 69.578257
1866.000000, 69.548863
1867.000000, 69.566096
1868.000000, 69.551113
1869.000000, 69.529235
1870.000000, 69.532946
1871.000000, 69.514788
1872.000000, 69.501043
1873.000000, 69.503280
1874.000000, 69.450275
1875.000000, 69.465294
1876.000000, 69.465481
1877.000000, 69.447467
1878.000000, 69.421480
1879.000000, 69.429677
1880.000000, 69.419913
1881.000000, 69.423372
1882.000000, 69.396328
1883.000000, 69.388410
1884.000000, 69.368545
1885.000000, 69.341458
1886.000000, 69.303630
1887.000000, 69.237424
1888.000000, 69.237426
1889.000000, 69.184081
1890.000000, 69.110082
1891.000000, 69.081486
1892.000000, 69.006175
1893.000000, 68.916502
1894.000000, 68.858739
1895.000000, 68.800488
1896.000000, 68.731992
1897.000000, 68.636178
1898.000000, 68.547370
1899.000000, 68.474374
1900.000000, 68.353008
1901.000000, 68.270243
1902.000000, 68.129565
1903.000000, 68.037117
1904.000000, 67.930733
1905.000000, 67.787906
1906.000000, 67.663812
1907.000000, 67.545849
1908.000000, 67.447108
1909.000000, 67.451953
1910.000000, 67.229756
1911.000000, 67.133346
1912.000000, 67.015911
1913.000000, 66.902561
1914.000000, 66.784799
1915.000000, 66.677588
1916.000000, 66.582673
1917.000000, 66.491806
1918.000000, 66.406139
1919.000000, 66.321070
1920.000000, 66.214148
1921.000000, 66.052166
1922.000000, 66.016786
1923.000000, 65.980309
1924.000000, 65.911438
1925.000000, 65.867703
1926.000000, 65.814596
1927.000000, 65.773323
1928.000000, 65.722022
1929.000000, 65.692705
1930.000000, 65.673050
1931.000000, 65.649104
1932.000000, 65.666353
1933.000000, 65.639330
1934.000000, 65.641044
1935.000000, 65.656131
1936.000000, 65.684438
1937.000000, 65.711018
1938.000000, 65.766415
1939.000000, 65.821531
1940.000000, 65.876568
1941.000000, 65.935916
1942.000000, 65.995695
1943.000000, 66.096558
1944.000000, 66.180454
1945.000000, 66.259084
1946.000000, 66.381533
1947.000000, 66.481001
1948.000000, 66.603552
1949.000000, 66.708769
1950.000000, 66.855465
1951.000000, 66.939845
1952.000000, 67.159727
1953.000000, 67.260725
1954.000000, 67.379043
1955.000000, 67.569238
1956.000000, 67.741835
1957.000000, 67.890199
1958.000000, 67.996057
1959.000000, 68.277727
1960.000000, 68.400270
1961.000000, 68.567874
1962.000000, 68.748690
1963.000000, 68.935805
1964.000000, 69.105237
1965.000000, 69.271895
1966.000000, 69.470572
1967.000000, 69.654072
1968.000000, 69.793944
1969.000000, 69.977206
1970.000000, 70.146810
1971.000000, 70.326708
1972.000000, 70.466356
1973.000000, 70.639763
1974.000000, 70.791198
1975.000000, 70.961603
1976.000000, 71.073524
1977.000000, 71.201326
1978.000000, 71.405085
1979.000000, 71.495396
1980.000000, 71.548699
1981.000000, 71.745907
1982.000000, 71.813392
1983.000000, 71.891197
1984.000000, 71.960761
1985.000000, 72.057421
1986.000000, 72.111412
1987.000000, 72.136715
1988.000000, 72.218046
1989.000000, 72.201656
1990.000000, 72.226765
1991.000000, 72.272175
1992.000000, 72.194217
1993.000000, 72.176109
1994.000000, 72.167482
1995.000000, 72.122339
1996.000000, 72.065816
1997.000000, 71.988066
1998.000000, 71.916270
1999.000000, 71.849765
2000.000000, 71.649751
2001.000000, 71.536821
2002.000000, 71.398333
2003.000000, 71.262046
2004.000000, 71.143379
2005.000000, 70.962161
2006.000000, 70.820317
2007.000000, 70.621933
2008.000000, 70.421551
2009.000000, 70.251027
2010.000000, 70.057080
2011.000000, 69.843858
2012.000000, 69.626427
2013.000000, 69.374856
2014.000000, 69.182413
2015.000000, 69.008440
2016.000000, 68.727955
2017.000000, 68.463197
2018.000000, 68.277601
2019.000000, 68.018258
2020.000000, 67.775962
2021.000000, 67.521741
2022.000000, 67.302803
2023.000000, 67.046791
2024.000000, 66.796252
2025.000000, 66.585547
2026.000000, 66.323156
2027.000000, 66.115184
2028.000000, 65.879729
2029.000000, 65.639786
2030.000000, 65.434235
2031.000000, 65.212339
2032.000000, 65.000649
2033.000000, 64.801258
2034.000000, 64.592130
2035.000000, 64.408483
2036.000000, 64.208830
2037.000000, 64.020691
2038.000000, 63.862958
2039.000000, 63.684860
2040.000000, 63.515550
2041.000000, 63.413977
2042.000000, 63.240984
2043.000000, 63.103316
2044.000000, 62.985106
2045.000000, 62.863500
2046.000000, 62.757564
2047.000000, 62.642936
2048.000000, 62.546790
2049.000000, 62.471419
2050.000000, 62.379625
2051.000000, 62.301436
2052.000000, 62.247961
2053.000000, 62.182003
2054.000000, 62.154296
2055.000000, 62.099046
2056.000000, 62.051378
2057.000000, 62.077245
2058.000000, 62.031018
2059.000000, 62.032358
2060.000000, 62.021530
2061.000000, 62.057158
2062.000000, 62.052495
2063.000000, 62.054876
2064.000000, 62.141320
2065.000000, 62.120072
2066.000000, 62.154004
2067.000000, 62.216877
2068.000000, 62.258764
2069.000000, 62.307315
2070.000000, 62.358485
2071.000000, 62.421019
2072.000000, 62.477729
2073.000000, 62.578468
2074.000000, 62.625912
2075.000000, 62.686709
2076.000000, 62.811066
2077.000000, 62.877597
2078.000000, 62.919980
2079.000000, 63.050120
2080.000000, 63.156413
2081.000000, 63.208597
2082.000000, 63.261708
2083.000000, 63.437915
2084.000000, 63.479404
2085.000000, 63.544286
2086.000000, 63.691944
2087.000000, 63.747572
2088.000000, 63.836558
2089.000000, 63.911885
2090.000000, 64.024541
2091.000000, 64.089096
2092.000000, 64.154058
2093.000000, 64.249828
2094.000000, 64.305648
2095.000000, 64.382811
2096.000000, 64.460803
2097.000000, 64.510164
2098.000000, 64.581560
2099.000000, 64.621951
2100.000000, 64.682899
2101.000000, 64.727468
2102.000000, 64.775042
2103.000000, 64.773414
2104.000000, 64.866088
2105.000000, 64.866763
2106.000000, 64.846720
2107.000000, 64.934020
2108.000000, 64.934201
2109.000000, 64.885390
2110.000000, 64.889881
2111.000000, 64.946726
2112.000000, 64.893820
2113.000000, 64.864605
2114.000000, 64.850763
2115.000000, 64.817864
2116.000000, 64.761638
2117.000000, 64.722490
2118.000000, 64.663207
2119.000000, 64.634174
2120.000000, 64.532253
2121.000000, 64.483469
2122.000000, 64.427548
2123.000000, 64.339708
2124.000000, 64.220644
2125.000000, 64.189382
2126.000000, 64.081101
2127.000000, 63.978942
2128.000000, 63.834934
2129.000000, 63.799139
2130.000000, 63.665897
2131.000000, 63.503422
2132.000000, 63.454106
2133.000000, 63.314011
2134.000000, 63.189537
2135.000000, 63.058220
2136.000000, 62.920463
2137.000000, 62.790238
2138.000000, 62.667704
2139.000000, 62.535644
2140.000000, 62.405636
2141.000000, 62.304129
2142.000000, 62.127926
2143.000000, 62.000270
2144.000000, 61.868677
2145.000000, 61.761774
2146.000000, 61.587554
2147.000000, 61.470318
2148.000000, 61.390284
2149.000000, 61.200107
2150.000000, 61.092586
2151.000000, 60.996016
2152.000000, 60.888129
2153.000000, 60.704053
2154.000000, 60.627008
2155.000000, 60.557632
2156.000000, 60.406075
2157.000000, 60.321227
2158.000000, 60.216143
2159.000000, 60.123982
2160.000000, 60.036157
2161.000000, 59.943175
2162.000000, 59.856208
2163.000000, 59.792020
2164.000000, 59.729458
2165.000000, 59.648228
2166.000000, 59.588146
2167.000000, 59.531902
2168.000000, 59.466522
2169.000000, 59.421053
2170.000000, 59.370623
2171.000000, 59.330381
2172.000000, 59.291989
2173.000000, 59.271793
2174.000000, 59.242701
2175.000000, 59.196642
2176.000000, 59.161149
2177.000000, 59.164513
2178.000000, 59.134530
2179.000000, 59.130972
2180.000000, 59.094603
2181.000000, 59.080049
2182.000000, 59.061127
2183.000000, 59.056703
2184.000000, 59.023736
2185.000000, 59.003912
2186.000000, 58.994135
2187.000000, 58.937288
2188.000000, 58.931196
2189.000000, 58.860714
2190.000000, 58.821961
2191.000000, 58.782413
2192.000000, 58.723734
2193.000000, 58.675965
2194.000000, 58.617840
2195.000000, 58.562098
2196.000000, 58.495855
2197.000000, 58.420000
2198.000000, 58.358655
2199.000000, 58.315595
2200.000000, 58.247562
2201.000000, 58.223655
2202.000000, 58.158853
2203.000000, 58.165293
2204.000000, 58.115525
2205.000000, 58.126740
2206.000000, 58.099209
2207.000000, 58.150014
2208.000000, 58.203618
2209.000000, 58.261688
2210.000000, 58.332670
2211.000000, 58.408618
2212.000000, 58.489104
2213.000000, 58.607134
2214.000000, 58.716642
2215.000000, 58.852279
2216.000000, 58.976160
2217.000000, 59.119187
2218.000000, 59.263644
2219.000000, 59.424299
2220.000000, 59.581877
2221.000000, 59.739323
2222.000000, 59.882091
2223.000000, 60.017974
2224.000000, 60.149043
2225.000000, 60.334178
2226.000000, 60.460096
2227.000000, 60.599122
2228.000000, 60.719071
2229.000000, 60.845412
2230.000000, 60.961220
2231.000000, 61.058470
2232.000000, 61.161274
2233.000000, 61.254015
2234.000000, 61.338123
2235.000000, 61.413613
2236.000000, 61.472535
2237.000000, 61.536990
2238.000000, 61.603673
2239.000000, 61.648636
2240.000000, 61.695485
2241.000000, 61.728037
2242.000000, 61.769460
2243.000000, 61.797185
2244.000000, 61.816862
2245.000000, 61.832108
2246.000000, 61.851675
2247.000000, 61.871360
2248.000000, 61.861444
2249.000000, 61.857245
2250.000000, 61.841461
2251.000000, 61.831179
2252.000000, 61.824399
2253.000000, 61.799730
2254.000000, 61.786638
2255.000000, 61.751108
2256.000000, 61.738219
2257.000000, 61.700497
2258.000000, 61.665936
2259.000000, 61.621495
2260.000000, 61.576244
2261.000000, 61.532431
2262.000000, 61.473745
2263.000000, 61.425998
2264.000000, 61.359539
2265.000000, 61.301874
2266.000000, 61.243782
2267.000000, 61.172230
2268.000000, 61.101277
2269.000000, 61.030960
2270.000000, 60.929617
2271.000000, 60.891484
2272.000000, 60.807836
2273.000000, 60.711297
2274.000000, 60.629084
2275.000000, 60.542178
2276.000000, 60.455957
2277.000000, 60.393752
2278.000000, 60.300095
2279.000000, 60.209287
2280.000000, 60.128587
2281.000000, 60.035346
2282.000000, 59.959611
2283.000000, 59.871498
2284.000000, 59.784723
2285.000000, 59.702403
2286.000000, 59.614686
2287.000000, 59.520662
2288.000000, 59.432104
2289.000000, 59.359130
2290.000000, 59.295360
2291.000000, 59.203885
2292.000000, 59.129430
2293.000000, 59.052201
2294.000000, 58.989038
2295.000000, 58.921795
2296.000000, 58.848349
2297.000000, 58.768118
2298.000000, 58.712368
2299.000000, 58.660511
2300.000000, 58.599451
2301.000000, 58.557694
2302.000000, 58.475087
2303.000000, 58.448570
2304.000000, 58.412056
2305.000000, 58.371671
2306.000000, 58.329255
2307.000000, 58.297367
2308.000000, 58.285816
2309.000000, 58.244039
2310.000000, 58.218844
2311.000000, 58.191651
2312.000000, 58.184081
2313.000000, 58.162410
2314.000000, 58.156104
2315.000000, 58.136575
2316.000000, 58.134484
2317.000000, 58.140142
2318.000000, 58.152686
2319.000000, 58.151803
2320.000000, 58.167010
2321.000000, 58.167429
2322.000000, 58.220029
2323.000000, 58.209547
2324.000000, 58.224876
2325.000000, 58.246274
2326.000000, 58.300195
2327.000000, 58.362436
2328.000000, 58.383659
2329.000000, 58.433450
2330.000000, 58.468458
2331.000000, 58.530006
2332.000000, 58.552105
2333.000000, 58.632532
2334.000000, 58.676174
2335.000000, 58.803473
2336.000000, 58.810501
2337.000000, 58.868535
2338.000000, 58.934947
2339.000000, 59.022672
2340.000000, 59.088529
2341.000000, 59.149198
2342.000000, 59.219270
2343.000000, 59.293656
2344.000000, 59.364457
2345.000000, 59.440900
2346.000000, 59.532788
2347.000000, 59.620403
2348.000000, 59.685183
2349.000000, 59.766778
2350.000000, 59.856693
2351.000000, 59.945183
2352.000000, 60.025070
2353.000000, 60.126747
2354.000000, 60.202794
2355.000000, 60.317784
2356.000000, 60.374471
2357.000000, 60.463934
2358.000000, 60.557865
2359.000000, 60.648964
2360.000000, 60.737466
2361.000000, 60.818240
2362.000000, 60.911176
2363.000000, 60.982127
2364.000000, 61.070184
2365.000000, 61.162850
2366.000000, 61.231810
2367.000000, 61.289643
2368.000000, 61.377145
2369.000000, 61.453041
2370.000000, 61.503697
2371.000000, 61.593064
2372.000000, 61.662137
2373.000000, 61.715959
2374.000000, 61.785164
2375.000000, 61.849519
2376.000000, 61.909204
2377.000000, 61.958006
2378.000000, 62.027725
2379.000000, 62.070367
2380.000000, 62.130586
2381.000000, 62.151954
2382.000000, 62.213510
2383.000000, 62.236711
2384.000000, 62.308391
2385.000000, 62.291010
2386.000000, 62.331497
2387.000000, 62.363743
2388.000000, 62.376502
2389.000000, 62.414274
2390.000000, 62.409383
2391.000000, 62.433492
2392.000000, 62.443253
2393.000000, 62.440557
2394.000000, 62.469858
2395.000000, 62.427999
2396.000000, 62.453297
2397.000000, 62.400903
2398.000000, 62.400277
2399.000000, 62.372858
2400.000000, 62.334449
2401.000000, 62.339761
2402.000000, 62.306387
2403.000000, 62.271530
2404.000000, 62.246662
2405.000000, 62.186161
2406.000000, 62.188671
2407.000000, 62.125935
2408.000000, 62.079160
2409.000000, 62.039573
2410.000000, 61.965191
2411.000000, 61.915193
2412.000000, 61.872935
2413.000000, 61.801648
2414.000000, 61.767405
2415.000000, 61.647504
2416.000000, 61.633602
2417.000000, 61.533688
2418.000000, 61.477028
2419.000000, 61.409363
2420.000000, 61.329027
2421.000000, 61.278743
2422.000000, 61.204922
2423.000000, 61.114516
2424.000000, 61.050968
2425.000000, 60.965880
2426.000000, 60.904363
2427.000000, 60.819465
2428.000000, 60.740204
2429.000000, 60.665474
2430.000000, 60.596552
2431.000000, 60.531339
2432.000000, 60.442480
2433.000000, 60.378189
2434.000000, 60.318201
2435.000000, 60.235373
2436.000000, 60.180274
2437.000000, 60.086901
2438.000000, 60.020542
2439.000000, 59.953027
2440.000000, 59.893740
2441.000000, 59.843261
2442.000000, 59.740393
2443.000000, 59.701092
2444.000000, 59.605622
2445.000000, 59.578462
2446.000000, 59.516267
2447.000000, 59.452452
2448.000000, 59.398676
2449.000000, 59.331758
2450.000000, 59.315173
2451.000000, 59.248906
2452.000000, 59.201150
2453.000000, 59.175940
2454.000000, 59.126819
2455.000000, 59.083480
2456.000000, 59.051038
2457.000000, 58.995878
2458.000000, 58.987541
2459.000000, 58.960308
2460.000000, 58.945085
2461.000000, 58.916537
2462.000000, 58.889713
2463.000000, 58.901686
2464.000000, 58.869825
2465.000000, 58.861591
2466.000000, 58.852054
2467.000000, 58.856593
2468.000000, 58.845040
2469.000000, 58.851497
2470.000000, 58.839132
2471.000000, 58.851454
2472.000000, 58.854701
2473.000000, 58.877714
2474.000000, 58.865153
2475.000000, 58.900599
2476.000000, 58.922281
2477.000000, 58.935430
2478.000000, 58.964438
2479.000000, 58.990832
2480.000000, 59.017105
2481.000000, 59.050305
2482.000000, 59.082467
2483.000000, 59.107496
2484.000000, 59.147177
2485.000000, 59.166138
2486.000000, 59.217759
2487.000000, 59.264737
2488.000000, 59.288548
2489.000000, 59.344191
2490.000000, 59.384974
2491.000000, 59.432183
2492.000000, 59.497769
2493.000000, 59.520646
2494.000000, 59.604965
2495.000000, 59.641578
2496.000000, 59.705362
2497.000000, 59.759841
2498.000000, 59.820282
2499.000000, 59.884070
2500.000000, 59.963994