# Wavelength  (nm), Transmission (%)
2600.000000, 66.689690
2599.000000, 66.586891
2598.000000, 66.586205
2597.000000, 66.470840
2596.000000, 66.363594
2595.000000, 66.220734
2594.000000, 66.034004
2593.000000, 66.010010
2592.000000, 65.870293
2591.000000, 65.696045
2590.000000, 65.485695
2589.000000, 65.442184
2588.000000, 65.212814
2587.000000, 65.061066
2586.000000, 64.922592
2585.000000, 64.748360
2584.000000, 64.571014
2583.000000, 64.417068
2582.000000, 64.275444
2581.000000, 64.216385
2580.000000, 64.035812
2579.000000, 63.983070
2578.000000, 63.897198
2577.000000, 63.948811
2576.000000, 63.918865
2575.000000, 63.791771
2574.000000, 63.816113
2573.000000, 63.751572
2572.000000, 63.784737
2571.000000, 63.826225
2570.000000, 63.723351
2569.000000, 63.686298
2568.000000, 63.717304
2567.000000, 63.573635
2566.000000, 63.537209
2565.000000, 63.419785
2564.000000, 63.473213
2563.000000, 63.444424
2562.000000, 63.388382
2561.000000, 63.307720
2560.000000, 63.233109
2559.000000, 63.314880
2558.000000, 63.218815
2557.000000, 63.182587
2556.000000, 63.218498
2555.000000, 63.109112
2554.000000, 63.137543
2553.000000, 63.208305
2552.000000, 63.209450
2551.000000, 63.168507
2550.000000, 63.267864
2549.000000, 63.282715
2548.000000, 63.219406
2547.000000, 63.266785
2546.000000, 63.295280
2545.000000, 63.248062
2544.000000, 63.207741
2543.000000, 63.224159
2542.000000, 63.227749
2541.000000, 63.127815
2540.000000, 63.089500
2539.000000, 63.127945
2538.000000, 62.979584
2537.000000, 62.918369
2536.000000, 62.840187
2535.000000, 62.720402
2534.000000, 62.626560
2533.000000, 62.457920
2532.000000, 62.363689
2531.000000, 62.142849
2530.000000, 61.992149
2529.000000, 61.919273
2528.000000, 61.728458
2527.000000, 61.475174
2526.000000, 61.379509
2525.000000, 61.163826
2524.000000, 60.973454
2523.000000, 60.824169
2522.000000, 60.747814
2521.000000, 60.509224
2520.000000, 60.362804
2519.000000, 60.208000
2518.000000, 60.102825
2517.000000, 59.914875
2516.000000, 59.837257
2515.000000, 59.739555
2514.000000, 59.682911
2513.000000, 59.564106
2512.000000, 59.583061
2511.000000, 59.536999
2510.000000, 59.519184
2509.000000, 59.606625
2508.000000, 59.596931
2507.000000, 59.656357
2506.000000, 59.763699
2505.000000, 59.802628
2504.000000, 59.894882
2503.000000, 60.018723
2502.000000, 60.114227
2501.000000, 60.192066
2500.000000, 60.233242
2499.000000, 60.346592
2498.000000, 60.430847
2497.000000, 60.420441
2496.000000, 60.557037
2495.000000, 60.552807
2494.000000, 60.609947
2493.000000, 60.624748
2492.000000, 60.730827
2491.000000, 60.714275
2490.000000, 60.699890
2489.000000, 60.769741
2488.000000, 60.781281
2487.000000, 60.815704
2486.000000, 60.825752
2485.000000, 60.894459
2484.000000, 60.809010
2483.000000, 60.820377
2482.000000, 60.810394
2481.000000, 60.648304
2480.000000, 60.578773
2479.000000, 60.489609
2478.000000, 60.185211
2477.000000, 60.030216
2476.000000, 59.761536
2475.000000, 59.350239
2474.000000, 58.995163
2473.000000, 58.694237
2472.000000, 58.275311
2471.000000, 57.820129
2470.000000, 57.447479
2469.000000, 57.135941
2468.000000, 56.623470
2467.000000, 56.266159
2466.000000, 55.843960
2465.000000, 55.523724
2464.000000, 55.176002
2463.000000, 55.090363
2462.000000, 54.917145
2461.000000, 54.908310
2460.000000, 55.042522
2459.000000, 55.122112
2458.000000, 55.316765
2457.000000, 55.652225
2456.000000, 56.074482
2455.000000, 56.359146
2454.000000, 56.726402
2453.000000, 57.212006
2452.000000, 57.501717
2451.000000, 57.976215
2450.000000, 58.335884
2449.000000, 58.771877
2448.000000, 59.209476
2447.000000, 59.697266
2446.000000, 60.044922
2445.000000, 60.497620
2444.000000, 60.979591
2443.000000, 61.311497
2442.000000, 61.726433
2441.000000, 62.114269
2440.000000, 62.354027
2439.000000, 62.621773
2438.000000, 62.890224
2437.000000, 63.144417
2436.000000, 63.290714
2435.000000, 63.459103
2434.000000, 63.608696
2433.000000, 63.704891
2432.000000, 63.846493
2431.000000, 63.930672
2430.000000, 63.995003
2429.000000, 64.070686
2428.000000, 64.183144
2427.000000, 64.115387
2426.000000, 64.156746
2425.000000, 64.209351
2424.000000, 64.198898
2423.000000, 64.217941
2422.000000, 64.231422
2421.000000, 64.176529
2420.000000, 64.087273
2419.000000, 64.105637
2418.000000, 64.052155
2417.000000, 63.985806
2416.000000, 63.936443
2415.000000, 63.790424
2414.000000, 63.700249
2413.000000, 63.560646
2412.000000, 63.526142
2411.000000, 63.307835
2410.000000, 63.136219
2409.000000, 63.077728
2408.000000, 62.793533
2407.000000, 62.666546
2406.000000, 62.560154
2405.000000, 62.313263
2404.000000, 62.246693
2403.000000, 62.235321
2402.000000, 62.157661
2401.000000, 62.152588
2400.000000, 62.196033
2399.000000, 62.205170
2398.000000, 62.308769
2397.000000, 62.463070
2396.000000, 62.524544
2395.000000, 62.594456
2394.000000, 62.759769
2393.000000, 62.758995
2392.000000, 62.855553
2391.000000, 63.029053
2390.000000, 63.044167
2389.000000, 63.146107
2388.000000, 63.199623
2387.000000, 63.208111
2386.000000, 63.464642
2385.000000, 63.588428
2384.000000, 63.539642
2383.000000, 63.712864
2382.000000, 63.838428
2381.000000, 63.781803
2380.000000, 63.831680
2379.000000, 63.919617
2378.000000, 63.997395
2377.000000, 63.923866
2376.000000, 63.910210
2375.000000, 63.882401
2374.000000, 63.925941
2373.000000, 63.917046
2372.000000, 63.844608
2371.000000, 63.781643
2370.000000, 63.863991
2369.000000, 63.844345
2368.000000, 63.797535
2367.000000, 63.731056
2366.000000, 63.870941
2365.000000, 63.749825
2364.000000, 63.929729
2363.000000, 63.819736
2362.000000, 63.945412
2361.000000, 63.992775
2360.000000, 64.046303
2359.000000, 64.188286
2358.000000, 64.175919
2357.000000, 64.191841
2356.000000, 64.266151
2355.000000, 64.154968
2354.000000, 64.121147
2353.000000, 64.216888
2352.000000, 64.177063
2351.000000, 64.210312
2350.000000, 64.063309
2349.000000, 64.141594
2348.000000, 64.134384
2347.000000, 64.168304
2346.000000, 64.269081
2345.000000, 64.231613
2344.000000, 64.399117
2343.000000, 64.356682
2342.000000, 64.421242
2341.000000, 64.483490
2340.000000, 64.439018
2339.000000, 64.354767
2338.000000, 64.275185
2337.000000, 64.214928
2336.000000, 64.121117
2335.000000, 64.031425
2334.000000, 63.890503
2333.000000, 63.736938
2332.000000, 63.442890
2331.000000, 63.328487
2330.000000, 63.151455
2329.000000, 62.910175
2328.000000, 62.672276
2327.000000, 62.377430
2326.000000, 62.222134
2325.000000, 61.947708
2324.000000, 61.593311
2323.000000, 61.240761
2322.000000, 60.973888
2321.000000, 60.475342
2320.000000, 60.119648
2319.000000, 59.821518
2318.000000, 59.355713
2317.000000, 59.146015
2316.000000, 58.972382
2315.000000, 58.785938
2314.000000, 58.849220
2313.000000, 58.837158
2312.000000, 58.960091
2311.000000, 59.148659
2310.000000, 59.296505
2309.000000, 59.417904
2308.000000, 59.572483
2307.000000, 59.708614
2306.000000, 59.911167
2305.000000, 59.894127
2304.000000, 60.087448
2303.000000, 60.190117
2302.000000, 60.264431
2301.000000, 60.358368
2300.000000, 60.458286
2299.000000, 60.665417
2298.000000, 60.880356
2297.000000, 61.005688
2296.000000, 61.143349
2295.000000, 61.353569
2294.000000, 61.559170
2293.000000, 61.763977
2292.000000, 61.957886
2291.000000, 62.143230
2290.000000, 62.342499
2289.000000, 62.563412
2288.000000, 62.738575
2287.000000, 62.899887
2286.000000, 63.169052
2285.000000, 63.380867
2284.000000, 63.498199
2283.000000, 63.689594
2282.000000, 63.921177
2281.000000, 63.980190
2280.000000, 64.234940
2279.000000, 64.315536
2278.000000, 64.343422
2277.000000, 64.486481
2276.000000, 64.584427
2275.000000, 64.702385
2274.000000, 64.893173
2273.000000, 65.083351
2272.000000, 65.426758
2271.000000, 65.799744
2270.000000, 66.127640
2269.000000, 66.606483
2268.000000, 67.023605
2267.000000, 67.639282
2266.000000, 68.057915
2265.000000, 68.503967
2264.000000, 69.054451
2263.000000, 69.625587
2262.000000, 70.004044
2261.000000, 70.421051
2260.000000, 70.983299
2259.000000, 71.292999
2258.000000, 71.813843
2257.000000, 72.196030
2256.000000, 72.614876
2255.000000, 73.003044
2254.000000, 73.362793
2253.000000, 73.750542
2252.000000, 74.069817
2251.000000, 74.346390
2250.000000, 74.807854
2249.000000, 75.023575
2248.000000, 75.297539
2247.000000, 75.515106
2246.000000, 75.761856
2245.000000, 75.974068
2244.000000, 76.163605
2243.000000, 76.320877
2242.000000, 76.365593
2241.000000, 76.567802
2240.000000, 76.588730
2239.000000, 76.917877
2238.000000, 76.866219
2237.000000, 76.964714
2236.000000, 76.919151
2235.000000, 76.982460
2234.000000, 77.072617
2233.000000, 77.062798
2232.000000, 77.169052
2231.000000, 77.330757
2230.000000, 77.364723
2229.000000, 77.508270
2228.000000, 77.587715
2227.000000, 77.605293
2226.000000, 77.742317
2225.000000, 77.857636
2224.000000, 77.966675
2223.000000, 77.962624
2222.000000, 77.970299
2221.000000, 78.100281
2220.000000, 77.985611
2219.000000, 77.957085
2218.000000, 78.046463
2217.000000, 77.957565
2216.000000, 77.927116
2215.000000, 77.863968
2214.000000, 77.787750
2213.000000, 77.774284
2212.000000, 77.759949
2211.000000, 77.662743
2210.000000, 77.636848
2209.000000, 77.595345
2208.000000, 77.706291
2207.000000, 77.620850
2206.000000, 77.705559
2205.000000, 77.715660
2204.000000, 77.789207
2203.000000, 77.899902
2202.000000, 77.949745
2201.000000, 78.073456
2200.000000, 78.163681
2199.000000, 78.033791
2198.000000, 78.177231
2197.000000, 78.276573
2196.000000, 78.249428
2195.000000, 78.185570
2194.000000, 78.212990
2193.000000, 78.152130
2192.000000, 78.112923
2191.000000, 78.194916
2190.000000, 78.211365
2189.000000, 78.179520
2188.000000, 78.198746
2187.000000, 78.316444
2186.000000, 78.413795
2185.000000, 78.525284
2184.000000, 78.492065
2183.000000, 78.642563
2182.000000, 78.822639
2181.000000, 78.741997
2180.000000, 78.821724
2179.000000, 78.851547
2178.000000, 78.895096
2177.000000, 78.841301
2176.000000, 78.715683
2175.000000, 78.558968
2174.000000, 78.456757
2173.000000, 78.230698
2172.000000, 77.878365
2171.000000, 77.593193
2170.000000, 77.254623
2169.000000, 76.913689
2168.000000, 76.435791
2167.000000, 76.152840
2166.000000, 75.685036
2165.000000, 75.387901
2164.000000, 75.322128
2163.000000, 75.220703
2162.000000, 75.270027
2161.000000, 75.371048
2160.000000, 75.572739
2159.000000, 75.745392
2158.000000, 76.058426
2157.000000, 76.431068
2156.000000, 76.751556
2155.000000, 77.124573
2154.000000, 77.369644
2153.000000, 77.619270
2152.000000, 77.913177
2151.000000, 77.932465
2150.000000, 78.048935
2149.000000, 78.140358
2148.000000, 78.185356
2147.000000, 78.108940
2146.000000, 78.119064
2145.000000, 77.922569
2144.000000, 77.780060
2143.000000, 77.553467
2142.000000, 77.438858
2141.000000, 77.178589
2140.000000, 77.029533
2139.000000, 76.882782
2138.000000, 76.700478
2137.000000, 76.621330
2136.000000, 76.657234
2135.000000, 76.771667
2134.000000, 76.896156
2133.000000, 77.040733
2132.000000, 77.318504
2131.000000, 77.605492
2130.000000, 77.835251
2129.000000, 78.164070
2128.000000, 78.488342
2127.000000, 78.652420
2126.000000, 78.860588
2125.000000, 78.925056
2124.000000, 79.032745
2123.000000, 79.119850
2122.000000, 79.379288
2121.000000, 79.267967
2120.000000, 79.288582
2119.000000, 79.385384
2118.000000, 79.541901
2117.000000, 79.489273
2116.000000, 79.588783
2115.000000, 79.617020
2114.000000, 79.706551
2113.000000, 79.637436
2112.000000, 79.743607
2111.000000, 79.684448
2110.000000, 79.802635
2109.000000, 79.842834
2108.000000, 79.793068
2107.000000, 79.906937
2106.000000, 79.878670
2105.000000, 79.932770
2104.000000, 79.985069
2103.000000, 80.022842
2102.000000, 79.971649
2101.000000, 79.964752
2100.000000, 79.988754
2099.000000, 79.961456
2098.000000, 79.999741
2097.000000, 79.968742
2096.000000, 80.063110
2095.000000, 80.203430
2094.000000, 79.995758
2093.000000, 80.046532
2092.000000, 80.103836
2091.000000, 80.184021
2090.000000, 80.275444
2089.000000, 80.213257
2088.000000, 80.303627
2087.000000, 80.318794
2086.000000, 80.372459
2085.000000, 80.389854
2084.000000, 80.424843
2083.000000, 80.536064
2082.000000, 80.604393
2081.000000, 80.716682
2080.000000, 80.745140
2079.000000, 80.742599
2078.000000, 80.904877
2077.000000, 80.890480
2076.000000, 80.986710
2075.000000, 81.086006
2074.000000, 81.161736
2073.000000, 81.224945
2072.000000, 81.330025
2071.000000, 81.499359
2070.000000, 81.508049
2069.000000, 81.517212
2068.000000, 81.640289
2067.000000, 81.637787
2066.000000, 81.909821
2065.000000, 81.866699
2064.000000, 81.940056
2063.000000, 82.066177
2062.000000, 82.169456
2061.000000, 82.230461
2060.000000, 82.322533
2059.000000, 82.334633
2058.000000, 82.438965
2057.000000, 82.585182
2056.000000, 82.575043
2055.000000, 82.742081
2054.000000, 82.742271
2053.000000, 82.655273
2052.000000, 82.869270
2051.000000, 83.002113
2050.000000, 82.987152
2049.000000, 83.039894
2048.000000, 83.128708
2047.000000, 83.253189
2046.000000, 83.204491
2045.000000, 83.330406
2044.000000, 83.441917
2043.000000, 83.425064
2042.000000, 83.574921
2041.000000, 83.486427
2040.000000, 83.670761
2039.000000, 83.740425
2038.000000, 83.737389
2037.000000, 83.865967
2036.000000, 83.960876
2035.000000, 84.010056
2034.000000, 84.170906
2033.000000, 84.285187
2032.000000, 84.290581
2031.000000, 84.445297
2030.000000, 84.391304
2029.000000, 84.500603
2028.000000, 84.498146
2027.000000, 84.628769
2026.000000, 84.643829
2025.000000, 84.680122
2024.000000, 84.750191
2023.000000, 84.774193
2022.000000, 84.921898
2021.000000, 84.936348
2020.000000, 84.953171
2019.000000, 84.995064
2018.000000, 85.018242
2017.000000, 85.058685
2016.000000, 85.086159
2015.000000, 85.257645
2014.000000, 85.151901
2013.000000, 85.294655
2012.000000, 85.357803
2011.000000, 85.430573
2010.000000, 85.357521
2009.000000, 85.491081
2008.000000, 85.601433
2007.000000, 85.563248
2006.000000, 85.651382
2005.000000, 85.680870
2004.000000, 85.746170
2003.000000, 85.753807
2002.000000, 85.783401
2001.000000, 85.872223
2000.000000, 85.897339
1999.000000, 85.941086
1998.000000, 86.011932
1997.000000, 86.049339
1996.000000, 86.228386
1995.000000, 86.085052
1994.000000, 86.195107
1993.000000, 86.279121
1992.000000, 86.223724
1991.000000, 86.236961
1990.000000, 86.033043
1989.000000, 86.264107
1988.000000, 86.166450
1987.000000, 86.277786
1986.000000, 86.277107
1985.000000, 86.238396
1984.000000, 86.315186
1983.000000, 86.380264
1982.000000, 86.317619
1981.000000, 86.322510
1980.000000, 86.403725
1979.000000, 86.339394
1978.000000, 86.407997
1977.000000, 86.299934
1976.000000, 86.430183
1975.000000, 86.265236
1974.000000, 86.314789
1973.000000, 86.367554
1972.000000, 86.488396
1971.000000, 86.350304
1970.000000, 86.385422
1969.000000, 86.330620
1968.000000, 86.380386
1967.000000, 86.475601
1966.000000, 86.408844
1965.000000, 86.454407
1964.000000, 86.538162
1963.000000, 86.379517
1962.000000, 86.467148
1961.000000, 86.442795
1960.000000, 86.456268
1959.000000, 86.406555
1958.000000, 86.435684
1957.000000, 86.550674
1956.000000, 86.456848
1955.000000, 86.502342
1954.000000, 86.514206
1953.000000, 86.521530
1952.000000, 86.552338
1951.000000, 86.514656
1950.000000, 86.464401
1949.000000, 86.564728
1948.000000, 86.494423
1947.000000, 86.597786
1946.000000, 86.418114
1945.000000, 86.480232
1944.000000, 86.448357
1943.000000, 86.558601
1942.000000, 86.595047
1941.000000, 86.550209
1940.000000, 86.514763
1939.000000, 86.458153
1938.000000, 86.448494
1937.000000, 86.491676
1936.000000, 86.535591
1935.000000, 86.587646
1934.000000, 86.572227
1933.000000, 86.476578
1932.000000, 86.533707
1931.000000, 86.580940
1930.000000, 86.538223
1929.000000, 86.597298
1928.000000, 86.575645
1927.000000, 86.526978
1926.000000, 86.605919
1925.000000, 86.596634
1924.000000, 86.515793
1923.000000, 86.654060
1922.000000, 86.744781
1921.000000, 86.813942
1920.000000, 86.703049
1919.000000, 86.686790
1918.000000, 86.745132
1917.000000, 86.619476
1916.000000, 86.652740
1915.000000, 86.766670
1914.000000, 86.795601
1913.000000, 86.745087
1912.000000, 86.713478
1911.000000, 86.753807
1910.000000, 86.736481
1909.000000, 86.757645
1908.000000, 86.759338
1907.000000, 86.963669
1906.000000, 86.924690
1905.000000, 86.938240
1904.000000, 86.891113
1903.000000, 86.836975
1902.000000, 86.990646
1901.000000, 86.998825
1900.000000, 86.979134
1899.000000, 87.023613
1898.000000, 86.985184
1897.000000, 87.108932
1896.000000, 87.036606
1895.000000, 87.151169
1894.000000, 87.137566
1893.000000, 87.121872
1892.000000, 87.238358
1891.000000, 87.159012
1890.000000, 87.202499
1889.000000, 87.302498
1888.000000, 87.256386
1887.000000, 87.302711
1886.000000, 87.350456
1885.000000, 87.202927
1884.000000, 87.281639
1883.000000, 87.242538
1882.000000, 87.289345
1881.000000, 87.258507
1880.000000, 87.342949
1879.000000, 87.332092
1878.000000, 87.297943
1877.000000, 87.418198
1876.000000, 87.356667
1875.000000, 87.262924
1874.000000, 87.327171
1873.000000, 87.374603
1872.000000, 87.269196
1871.000000, 87.338982
1870.000000, 87.317871
1869.000000, 87.402435
1868.000000, 87.250694
1867.000000, 87.325844
1866.000000, 87.298134
1865.000000, 87.344170
1864.000000, 87.332542
1863.000000, 87.396202
1862.000000, 87.401497
1861.000000, 87.365791
1860.000000, 87.400673
1859.000000, 87.337143
1858.000000, 87.287529
1857.000000, 87.333649
1856.000000, 87.280266
1855.000000, 87.235611
1854.000000, 87.246155
1853.000000, 87.194664
1852.000000, 87.281181
1851.000000, 87.214783
1850.000000, 87.206688
1849.000000, 87.274796
1848.000000, 87.167694
1847.000000, 87.127213
1846.000000, 87.111633
1845.000000, 87.073654
1844.000000, 87.009186
1843.000000, 87.131279
1842.000000, 87.070969
1841.000000, 86.994232
1840.000000, 86.994705
1839.000000, 86.938820
1838.000000, 87.001007
1837.000000, 86.948868
1836.000000, 86.933357
1835.000000, 86.886070
1834.000000, 86.790314
1833.000000, 86.848816
1832.000000, 86.848045
1831.000000, 86.761108
1830.000000, 86.770210
1829.000000, 86.673370
1828.000000, 86.736748
1827.000000, 86.719589
1826.000000, 86.645660
1825.000000, 86.592392
1824.000000, 86.599144
1823.000000, 86.594116
1822.000000, 86.588158
1821.000000, 86.602341
1820.000000, 86.652626
1819.000000, 86.582687
1818.000000, 86.532692
1817.000000, 86.448624
1816.000000, 86.476151
1815.000000, 86.405365
1814.000000, 86.409081
1813.000000, 86.450600
1812.000000, 86.406799
1811.000000, 86.437866
1810.000000, 86.320534
1809.000000, 86.363808
1808.000000, 86.224434
1807.000000, 86.308189
1806.000000, 86.387650
1805.000000, 86.174973
1804.000000, 86.271759
1803.000000, 86.223778
1802.000000, 86.186104
1801.000000, 86.226074
1800.000000, 86.189957
1799.000000, 86.150948
1798.000000, 86.197128
1797.000000, 86.118774
1796.000000, 86.090385
1795.000000, 86.054024
1794.000000, 86.100655
1793.000000, 86.020020
1792.000000, 86.057648
1791.000000, 85.960411
1790.000000, 85.934464
1789.000000, 85.939491
1788.000000, 85.940849
1787.000000, 85.849808
1786.000000, 85.865990
1785.000000, 85.859749
1784.000000, 85.812729
1783.000000, 85.687210
1782.000000, 85.746971
1781.000000, 85.643913
1780.000000, 85.563087
1779.000000, 85.607155
1778.000000, 85.578087
1777.000000, 85.692551
1776.000000, 85.545876
1775.000000, 85.443214
1774.000000, 85.292549
1773.000000, 85.271156
1772.000000, 85.277344
1771.000000, 85.287582
1770.000000, 85.229927
1769.000000, 85.198845
1768.000000, 85.196953
1767.000000, 85.280945
1766.000000, 85.185112
1765.000000, 85.298286
1764.000000, 85.285728
1763.000000, 85.386703
1762.000000, 85.327209
1761.000000, 85.416023
1760.000000, 85.366096
1759.000000, 85.443893
1758.000000, 85.398903
1757.000000, 85.369781
1756.000000, 85.499466
1755.000000, 85.502792
1754.000000, 85.497337
1753.000000, 85.384682
1752.000000, 85.529976
1751.000000, 85.484329
1750.000000, 85.411064
1749.000000, 85.388168
1748.000000, 85.285477
1747.000000, 85.244736
1746.000000, 85.152931
1745.000000, 85.148392
1744.000000, 85.056808
1743.000000, 84.997162
1742.000000, 84.806870
1741.000000, 84.874138
1740.000000, 84.740112
1739.000000, 84.812553
1738.000000, 84.697792
1737.000000, 84.762222
1736.000000, 84.757469
1735.000000, 84.744606
1734.000000, 84.779312
1733.000000, 84.805801
1732.000000, 84.783516
1731.000000, 84.921021
1730.000000, 85.044762
1729.000000, 85.021255
1728.000000, 85.098320
1727.000000, 85.028946
1726.000000, 84.970467
1725.000000, 85.049278
1724.000000, 84.978119
1723.000000, 85.087166
1722.000000, 85.104530
1721.000000, 85.035133
1720.000000, 85.221977
1719.000000, 85.173050
1718.000000, 85.353821
1717.000000, 85.456642
1716.000000, 85.402168
1715.000000, 85.525902
1714.000000, 85.479637
1713.000000, 85.623466
1712.000000, 85.628990
1711.000000, 85.636887
1710.000000, 85.605827
1709.000000, 85.642914
1708.000000, 85.398865
1707.000000, 85.489044
1706.000000, 85.390900
1705.000000, 85.361893
1704.000000, 85.210419
1703.000000, 85.145973
1702.000000, 85.061264
1701.000000, 84.970390
1700.000000, 85.000160
1699.000000, 84.970856
1698.000000, 85.124962
1697.000000, 85.278961
1696.000000, 85.309891
1695.000000, 85.362991
1694.000000, 85.329109
1693.000000, 85.446457
1692.000000, 85.454063
1691.000000, 85.492226
1690.000000, 85.394814
1689.000000, 85.422493
1688.000000, 85.400368
1687.000000, 85.667038
1686.000000, 85.706291
1685.000000, 85.873924
1684.000000, 85.962784
1683.000000, 86.135742
1682.000000, 86.358337
1681.000000, 86.390739
1680.000000, 86.479279
1679.000000, 86.429474
1678.000000, 86.389107
1677.000000, 86.291489
1676.000000, 86.109367
1675.000000, 85.983566
1674.000000, 85.850975
1673.000000, 85.663437
1672.000000, 85.651001
1671.000000, 85.490913
1670.000000, 85.535667
1669.000000, 85.496643
1668.000000, 85.714645
1667.000000, 85.839088
1666.000000, 86.134285
1665.000000, 86.410797
1664.000000, 86.611099
1663.000000, 86.988548
1662.000000, 87.146904
1661.000000, 87.345764
1660.000000, 87.633957
1659.000000, 87.828033
1658.000000, 87.988281
1657.000000, 88.037544
1656.000000, 88.030975
1655.000000, 88.115387
1654.000000, 88.184029
1653.000000, 88.193031
1652.000000, 88.225670
1651.000000, 88.278671
1650.000000, 88.164070
1649.000000, 88.216049
1648.000000, 88.114182
1647.000000, 88.164101
1646.000000, 88.271103
1645.000000, 88.317902
1644.000000, 88.280312
1643.000000, 88.432442
1642.000000, 88.529304
1641.000000, 88.520744
1640.000000, 88.522102
1639.000000, 88.464241
1638.000000, 88.611511
1637.000000, 88.478699
1636.000000, 88.457451
1635.000000, 88.665688
1634.000000, 88.589897
1633.000000, 88.645294
1632.000000, 88.525963
1631.000000, 88.615295
1630.000000, 88.629120
1629.000000, 88.692001
1628.000000, 88.606018
1627.000000, 88.636978
1626.000000, 88.689575
1625.000000, 88.506554
1624.000000, 88.595718
1623.000000, 88.695145
1622.000000, 88.561111
1621.000000, 88.604118
1620.000000, 88.614426
1619.000000, 88.588242
1618.000000, 88.634026
1617.000000, 88.653824
1616.000000, 88.579887
1615.000000, 88.679626
1614.000000, 88.615547
1613.000000, 88.567345
1612.000000, 88.706215
1611.000000, 88.681145
1610.000000, 88.765488
1609.000000, 88.725151
1608.000000, 88.673653
1607.000000, 88.762527
1606.000000, 88.792267
1605.000000, 88.704178
1604.000000, 88.777580
1603.000000, 88.817009
1602.000000, 88.802368
1601.000000, 88.791199
1600.000000, 88.806580
1599.000000, 88.873825
1598.000000, 88.876053
1597.000000, 88.933571
1596.000000, 88.993027
1595.000000, 88.950401
1594.000000, 89.043709
1593.000000, 88.991470
1592.000000, 89.040855
1591.000000, 89.081482
1590.000000, 89.071037
1589.000000, 89.141830
1588.000000, 89.076859
1587.000000, 89.214752
1586.000000, 89.248672
1585.000000, 89.217384
1584.000000, 89.258469
1583.000000, 89.333076
1582.000000, 89.383812
1581.000000, 89.283997
1580.000000, 89.440605
1579.000000, 89.470680
1578.000000, 89.410324
1577.000000, 89.487961
1576.000000, 89.478836
1575.000000, 89.600761
1574.000000, 89.644394
1573.000000, 89.623344
1572.000000, 89.561813
1571.000000, 89.644829
1570.000000, 89.680084
1569.000000, 89.721527
1568.000000, 89.727394
1567.000000, 89.613762
1566.000000, 89.813446
1565.000000, 89.772026
1564.000000, 89.821266
1563.000000, 89.751839
1562.000000, 89.778885
1561.000000, 89.941299
1560.000000, 89.921394
1559.000000, 89.800194
1558.000000, 89.827690
1557.000000, 89.877594
1556.000000, 89.989159
1555.000000, 89.762627
1554.000000, 89.799202
1553.000000, 89.776733
1552.000000, 89.711914
1551.000000, 89.748634
1550.000000, 89.587372
1549.000000, 89.585884
1548.000000, 89.591270
1547.000000, 89.444794
1546.000000, 89.454819
1545.000000, 89.386436
1544.000000, 89.427170
1543.000000, 89.331612
1542.000000, 89.371178
1541.000000, 89.288910
1540.000000, 89.457008
1539.000000, 89.414040
1538.000000, 89.238602
1537.000000, 89.279282
1536.000000, 89.260605
1535.000000, 89.111588
1534.000000, 89.136276
1533.000000, 89.256760
1532.000000, 89.206657
1531.000000, 89.207481
1530.000000, 89.064934
1529.000000, 89.032639
1528.000000, 89.063026
1527.000000, 89.129669
1526.000000, 89.130775
1525.000000, 89.098297
1524.000000, 89.097328
1523.000000, 89.076637
1522.000000, 89.011421
1521.000000, 89.023293
1520.000000, 89.030411
1519.000000, 88.916359
1518.000000, 88.885323
1517.000000, 88.831909
1516.000000, 88.950775
1515.000000, 88.845535
1514.000000, 88.895172
1513.000000, 88.858154
1512.000000, 88.804283
1511.000000, 88.794128
1510.000000, 88.746704
1509.000000, 88.671822
1508.000000, 88.576546
1507.000000, 88.589928
1506.000000, 88.509102
1505.000000, 88.605789
1504.000000, 88.481674
1503.000000, 88.459572
1502.000000, 88.434647
1501.000000, 88.422913
1500.000000, 88.380417
1499.000000, 88.273155
1498.000000, 88.245972
1497.000000, 88.259644
1496.000000, 88.291290
1495.000000, 88.207733
1494.000000, 88.236069
1493.000000, 88.207886
1492.000000, 88.116653
1491.000000, 88.101974
1490.000000, 88.180191
1489.000000, 88.145889
1488.000000, 88.093407
1487.000000, 88.106224
1486.000000, 88.015793
1485.000000, 88.117867
1484.000000, 88.111725
1483.000000, 88.077133
1482.000000, 88.213409
1481.000000, 88.189156
1480.000000, 88.167076
1479.000000, 88.190659
1478.000000, 88.169739
1477.000000, 88.164169
1476.000000, 88.234413
1475.000000, 88.198914
1474.000000, 88.319084
1473.000000, 88.304520
1472.000000, 88.314697
1471.000000, 88.362389
1470.000000, 88.358307
1469.000000, 88.386848
1468.000000, 88.351067
1467.000000, 88.480400
1466.000000, 88.362671
1465.000000, 88.496552
1464.000000, 88.527817
1463.000000, 88.615829
1462.000000, 88.629982
1461.000000, 88.676163
1460.000000, 88.688980
1459.000000, 88.641510
1458.000000, 88.739403
1457.000000, 88.772141
1456.000000, 88.698479
1455.000000, 88.712364
1454.000000, 88.781441
1453.000000, 88.805725
1452.000000, 88.833740
1451.000000, 88.921661
1450.000000, 88.909569
1449.000000, 88.872292
1448.000000, 88.934669
1447.000000, 88.860291
1446.000000, 88.846527
1445.000000, 88.931808
1444.000000, 88.885132
1443.000000, 88.838615
1442.000000, 88.851280
1441.000000, 88.803375
1440.000000, 88.718391
1439.000000, 88.769943
1438.000000, 88.759079
1437.000000, 88.803810
1436.000000, 88.535591
1435.000000, 88.670395
1434.000000, 88.560570
1433.000000, 88.569191
1432.000000, 88.463234
1431.000000, 88.465744
1430.000000, 88.370056
1429.000000, 88.498375
1428.000000, 88.382477
1427.000000, 88.408264
1426.000000, 88.394981
1425.000000, 88.338493
1424.000000, 88.289818
1423.000000, 88.396286
1422.000000, 88.384460
1421.000000, 88.347710
1420.000000, 88.386528
1419.000000, 88.487823
1418.000000, 88.544189
1417.000000, 88.465919
1416.000000, 88.443977
1415.000000, 88.492165
1414.000000, 88.471413
1413.000000, 88.506340
1412.000000, 88.488815
1411.000000, 88.383629
1410.000000, 88.424751
1409.000000, 88.378349
1408.000000, 88.267288
1407.000000, 88.185234
1406.000000, 88.127724
1405.000000, 88.206078
1404.000000, 88.042465
1403.000000, 88.078247
1402.000000, 88.045723
1401.000000, 87.903625
1400.000000, 87.898155
1399.000000, 87.836784
1398.000000, 87.727509
1397.000000, 87.756042
1396.000000, 87.623177
1395.000000, 87.549614
1394.000000, 87.513199
1393.000000, 87.509842
1392.000000, 87.439117
1391.000000, 87.379364
1390.000000, 87.374268
1389.000000, 87.466827
1388.000000, 87.462402
1387.000000, 87.403313
1386.000000, 87.364616
1385.000000, 87.406502
1384.000000, 87.350876
1383.000000, 87.483772
1382.000000, 87.311165
1381.000000, 87.284584
1380.000000, 87.352272
1379.000000, 87.397057
1378.000000, 87.487343
1377.000000, 87.458282
1376.000000, 87.543312
1375.000000, 87.644730
1374.000000, 87.661026
1373.000000, 87.678093
1372.000000, 87.683578
1371.000000, 87.720314
1370.000000, 87.838730
1369.000000, 87.929764
1368.000000, 88.013351
1367.000000, 88.050011
1366.000000, 88.105957
1365.000000, 88.175110
1364.000000, 88.356758
1363.000000, 88.337868
1362.000000, 88.564064
1361.000000, 88.602898
1360.000000, 88.667145
1359.000000, 88.753387
1358.000000, 88.874039
1357.000000, 89.034744
1356.000000, 89.041229
1355.000000, 89.230034
1354.000000, 89.287384
1353.000000, 89.479324
1352.000000, 89.581726
1351.000000, 89.634148
1350.000000, 89.733910
1349.000000, 89.828156
1348.000000, 89.883545
1347.000000, 90.054543
1346.000000, 90.159157
1345.000000, 90.197136
1344.000000, 90.183517
1343.000000, 90.363709
1342.000000, 90.426666
1341.000000, 90.500107
1340.000000, 90.473572
1339.000000, 90.584686
1338.000000, 90.557617
1337.000000, 90.533875
1336.000000, 90.671883
1335.000000, 90.640816
1334.000000, 90.742676
1333.000000, 90.650848
1332.000000, 90.765366
1331.000000, 90.694481
1330.000000, 90.740211
1329.000000, 90.665558
1328.000000, 90.673782
1327.000000, 90.542000
1326.000000, 90.511909
1325.000000, 90.453110
1324.000000, 90.319328
1323.000000, 90.305649
1322.000000, 90.246651
1321.000000, 90.109985
1320.000000, 90.160828
1319.000000, 90.025993
1318.000000, 89.912445
1317.000000, 89.735451
1316.000000, 89.652016
1315.000000, 89.626167
1314.000000, 89.507080
1313.000000, 89.308617
1312.000000, 89.297195
1311.000000, 89.126366
1310.000000, 89.048859
1309.000000, 88.795868
1308.000000, 88.729218
1307.000000, 88.635078
1306.000000, 88.565979
1305.000000, 88.344963
1304.000000, 88.223518
1303.000000, 88.138840
1302.000000, 88.061180
1301.000000, 87.895287
1300.000000, 87.747108
1299.000000, 87.728447
1298.000000, 87.556313
1297.000000, 87.498016
1296.000000, 87.305412
1295.000000, 87.226341
1294.000000, 87.122765
1293.000000, 87.186905
1292.000000, 87.068054
1291.000000, 86.890755
1290.000000, 86.848358
1289.000000, 86.878265
1288.000000, 86.804909
1287.000000, 86.799088
1286.000000, 86.784134
1285.000000, 86.689034
1284.000000, 86.631119
1283.000000, 86.722389
1282.000000, 86.688255
1281.000000, 86.734428
1280.000000, 86.798050
1279.000000, 86.758957
1278.000000, 86.846245
1277.000000, 86.945686
1276.000000, 86.809937
1275.000000, 86.926559
1274.000000, 87.126686
1273.000000, 87.035057
1272.000000, 87.250893
1271.000000, 87.297424
1270.000000, 87.364792
1269.000000, 87.505402
1268.000000, 87.615730
1267.000000, 87.683960
1266.000000, 87.833679
1265.000000, 87.961288
1264.000000, 88.086075
1263.000000, 88.156502
1262.000000, 88.291382
1261.000000, 88.374496
1260.000000, 88.556473
1259.000000, 88.726349
1258.000000, 88.789810
1257.000000, 89.069214
1256.000000, 89.106056
1255.000000, 89.203995
1254.000000, 89.274231
1253.000000, 89.364433
1252.000000, 89.335754
1251.000000, 89.678513
1250.000000, 89.672729
1249.000000, 89.654083
1248.000000, 89.888451
1247.000000, 89.855812
1246.000000, 90.063789
1245.000000, 89.965851
1244.000000, 90.057556
1243.000000, 89.986816
1242.000000, 90.086922
1241.000000, 90.060753
1240.000000, 90.156471
1239.000000, 89.989174
1238.000000, 90.047874
1237.000000, 90.052727
1236.000000, 89.959923
1235.000000, 89.965614
1234.000000, 89.814087
1233.000000, 89.700600
1232.000000, 89.627197
1231.000000, 89.643616
1230.000000, 89.473289
1229.000000, 89.414940
1228.000000, 89.282616
1227.000000, 89.197083
1226.000000, 89.028259
1225.000000, 88.960854
1224.000000, 88.657112
1223.000000, 88.605995
1222.000000, 88.538597
1221.000000, 88.207581
1220.000000, 88.037369
1219.000000, 88.080757
1218.000000, 87.917198
1217.000000, 87.736137
1216.000000, 87.615013
1215.000000, 87.484314
1214.000000, 87.342766
1213.000000, 87.166649
1212.000000, 87.095871
1211.000000, 86.992439
1210.000000, 86.865959
1209.000000, 86.834061
1208.000000, 86.719254
1207.000000, 86.596336
1206.000000, 86.559799
1205.000000, 86.479362
1204.000000, 86.450104
1203.000000, 86.399902
1202.000000, 86.435112
1201.000000, 86.363785
1200.000000, 86.252800
1199.000000, 86.423920
1198.000000, 86.350334
1197.000000, 86.311562
1196.000000, 86.475388
1195.000000, 86.439262
1194.000000, 86.490685
1193.000000, 86.545433
1192.000000, 86.604935
1191.000000, 86.641548
1190.000000, 86.736252
1189.000000, 86.850983
1188.000000, 87.052849
1187.000000, 87.122192
1186.000000, 87.288681
1185.000000, 87.460640
1184.000000, 87.721916
1183.000000, 87.727692
1182.000000, 87.929306
1181.000000, 88.122665
1180.000000, 88.123520
1179.000000, 88.421188
1178.000000, 88.501266
1177.000000, 88.686119
1176.000000, 88.703499
1175.000000, 88.857796
1174.000000, 88.964371
1173.000000, 89.171135
1172.000000, 89.232872
1171.000000, 89.239998
1170.000000, 89.395126
1169.000000, 89.439545
1168.000000, 89.495590
1167.000000, 89.527061
1166.000000, 89.509010
1165.000000, 89.662506
1164.000000, 89.692894
1163.000000, 89.526619
1162.000000, 89.680794
1161.000000, 89.604332
1160.000000, 89.542519
1159.000000, 89.606110
1158.000000, 89.512833
1157.000000, 89.422348
1156.000000, 89.303726
1155.000000, 89.236298
1154.000000, 89.126503
1153.000000, 88.938919
1152.000000, 88.964752
1151.000000, 88.848869
1150.000000, 88.631470
1149.000000, 88.557152
1148.000000, 88.430786
1147.000000, 88.368454
1146.000000, 88.192970
1145.000000, 88.159668
1144.000000, 87.966797
1143.000000, 87.861725
1142.000000, 87.869705
1141.000000, 87.766602
1140.000000, 87.668816
1139.000000, 87.560684
1138.000000, 87.428070
1137.000000, 87.451080
1136.000000, 87.381386
1135.000000, 87.345360
1134.000000, 87.446068
1133.000000, 87.380798
1132.000000, 87.394318
1131.000000, 87.413925
1130.000000, 87.581688
1129.000000, 87.557312
1128.000000, 87.676392
1127.000000, 87.715080
1126.000000, 87.932564
1125.000000, 87.926979
1124.000000, 88.073524
1123.000000, 88.177437
1122.000000, 88.250870
1121.000000, 88.365372
1120.000000, 88.554207
1119.000000, 88.679802
1118.000000, 88.797363
1117.000000, 88.899170
1116.000000, 89.149963
1115.000000, 89.227333
1114.000000, 89.333382
1113.000000, 89.509224
1112.000000, 89.584320
1111.000000, 89.834854
1110.000000, 89.925293
1109.000000, 89.949188
1108.000000, 90.098961
1107.000000, 90.060242
1106.000000, 90.231750
1105.000000, 90.300575
1104.000000, 90.327576
1103.000000, 90.330345
1102.000000, 90.391174
1101.000000, 90.364601
1100.000000, 90.177933
1099.000000, 90.203110
1098.000000, 90.196289
1097.000000, 90.178612
1096.000000, 90.036850
1095.000000, 89.832909
1094.000000, 89.761642
1093.000000, 89.648384
1092.000000, 89.433815
1091.000000, 89.331436
1090.000000, 89.134972
1089.000000, 88.951622
1088.000000, 88.831230
1087.000000, 88.672791
1086.000000, 88.465042
1085.000000, 88.270493
1084.000000, 88.106934
1083.000000, 87.856438
1082.000000, 87.741547
1081.000000, 87.567955
1080.000000, 87.327995
1079.000000, 87.206154
1078.000000, 87.065880
1077.000000, 86.939774
1076.000000, 86.843994
1075.000000, 86.749153
1074.000000, 86.602417
1073.000000, 86.575661
1072.000000, 86.470154
1071.000000, 86.515282
1070.000000, 86.594994
1069.000000, 86.477562
1068.000000, 86.506287
1067.000000, 86.606453
1066.000000, 86.599289
1065.000000, 86.751167
1064.000000, 86.799850
1063.000000, 86.896790
1062.000000, 86.975571
1061.000000, 87.221779
1060.000000, 87.343155
1059.000000, 87.521538
1058.000000, 87.685432
1057.000000, 87.946732
1056.000000, 88.132500
1055.000000, 88.177528
1054.000000, 88.393715
1053.000000, 88.531349
1052.000000, 88.789940
1051.000000, 88.970581
1050.000000, 89.177757
1049.000000, 89.415359
1048.000000, 89.461136
1047.000000, 89.544144
1046.000000, 89.777031
1045.000000, 89.880043
1044.000000, 89.864311
1043.000000, 89.917419
1042.000000, 90.033035
1041.000000, 90.073624
1040.000000, 90.133690
1039.000000, 90.095428
1038.000000, 90.070061
1037.000000, 90.001694
1036.000000, 89.918770
1035.000000, 89.887253
1034.000000, 89.762741
1033.000000, 89.629379
1032.000000, 89.568771
1031.000000, 89.405785
1030.000000, 89.178627
1029.000000, 89.178307
1028.000000, 88.929024
1027.000000, 88.702896
1026.000000, 88.569717
1025.000000, 88.486221
1024.000000, 88.293098
1023.000000, 88.226959
1022.000000, 88.051125
1021.000000, 88.002197
1020.000000, 87.869041
1019.000000, 87.823853
1018.000000, 87.767601
1017.000000, 87.749954
1016.000000, 87.635979
1015.000000, 87.701950
1014.000000, 87.577805
1013.000000, 87.695328
1012.000000, 87.650558
1011.000000, 87.739372
1010.000000, 87.904549
1009.000000, 87.994575
1008.000000, 88.124542
1007.000000, 88.160461
1006.000000, 88.311432
1005.000000, 88.559990
1004.000000, 88.696632
1003.000000, 88.815948
1002.000000, 89.030678
1001.000000, 89.175171
1000.000000, 89.359360
999.000000, 89.471138
998.000000, 89.657051
997.000000, 89.859001
996.000000, 89.829323
995.000000, 89.978729
994.000000, 90.166084
993.000000, 90.219795
992.000000, 90.204536
991.000000, 90.293533
990.000000, 90.331024
989.000000, 90.373016
988.000000, 90.310303
987.000000, 90.343163
986.000000, 90.259415
985.000000, 90.216515
984.000000, 90.038879
983.000000, 90.021988
982.000000, 89.851746
981.000000, 89.826721
980.000000, 89.683662
979.000000, 89.535950
978.000000, 89.478111
977.000000, 89.371964
976.000000, 89.154945
975.000000, 89.113579
974.000000, 89.007500
973.000000, 88.954727
972.000000, 88.835838
971.000000, 88.706879
970.000000, 88.790375
969.000000, 88.746758
968.000000, 88.838646
967.000000, 88.698952
966.000000, 88.718094
965.000000, 88.792465
964.000000, 88.969597
963.000000, 88.893890
962.000000, 89.051353
961.000000, 89.143150
960.000000, 89.224510
959.000000, 89.330872
958.000000, 89.462990
957.000000, 89.583839
956.000000, 89.781487
955.000000, 89.843224
954.000000, 90.031609
953.000000, 90.047737
952.000000, 90.105019
951.000000, 90.148201
950.000000, 90.225296
949.000000, 90.246048
948.000000, 90.292770
947.000000, 90.396431
946.000000, 90.287468
945.000000, 90.196350
944.000000, 90.259598
943.000000, 90.304062
942.000000, 90.140976
941.000000, 90.021240
940.000000, 89.936378
939.000000, 89.804169
938.000000, 89.685593
937.000000, 89.487289
936.000000, 89.418159
935.000000, 89.335953
934.000000, 89.172295
933.000000, 89.072342
932.000000, 88.974815
931.000000, 88.724106
930.000000, 88.723885
929.000000, 88.656273
928.000000, 88.649345
927.000000, 88.569878
926.000000, 88.602921
925.000000, 88.620796
924.000000, 88.595100
923.000000, 88.625824
922.000000, 88.570526
921.000000, 88.669342
920.000000, 88.651642
919.000000, 88.771530
918.000000, 88.751450
917.000000, 88.870796
916.000000, 88.922882
915.000000, 89.074341
914.000000, 89.075607
913.000000, 89.239212
912.000000, 89.250595
911.000000, 89.431602
910.000000, 89.425430
909.000000, 89.506332
908.000000, 89.574692
907.000000, 89.596542
906.000000, 89.627312
905.000000, 89.661057
904.000000, 89.679153
903.000000, 89.761391
902.000000, 89.689598
901.000000, 89.649406
900.000000, 89.736069
899.000000, 89.705589
898.000000, 89.723221
897.000000, 89.742477
896.000000, 89.737740
895.000000, 89.682236
894.000000, 89.668228
893.000000, 89.671143
892.000000, 89.644569
891.000000, 89.642609
890.000000, 89.607445
889.000000, 89.725479
888.000000, 89.744881
887.000000, 89.665230
886.000000, 89.574509
885.000000, 89.615463
884.000000, 89.614067
883.000000, 89.646439
882.000000, 89.673286
881.000000, 89.606796
880.000000, 89.597496
879.000000, 89.574242
878.000000, 89.535034
877.000000, 89.476448
876.000000, 89.486069
875.000000, 89.499352
874.000000, 89.474739
873.000000, 89.359177
872.000000, 89.511314
871.000000, 89.476082
870.000000, 89.495293
869.000000, 89.571068
868.000000, 89.593788
867.000000, 89.724701
866.000000, 89.659294
865.000000, 89.726677
864.000000, 89.779572
863.000000, 89.897423
862.000000, 89.994987
861.000000, 89.952293
860.000000, 90.130844
859.000000, 90.202690
858.000000, 90.214996
857.000000, 90.259476
856.000000, 90.371582
855.000000, 90.282204
854.000000, 90.282593
853.000000, 90.453529
852.000000, 90.489288
851.000000, 90.385353
850.000000, 90.483139
849.000000, 90.322624
848.000000, 90.426727
847.000000, 90.408798
846.000000, 90.387672
845.000000, 90.440704
844.000000, 90.436531
843.000000, 90.442719
842.000000, 90.498672
841.000000, 90.478760
840.000000, 90.405739
839.000000, 90.544006
838.000000, 90.510193
837.000000, 90.402534
836.000000, 90.485497
835.000000, 90.464798
834.000000, 90.513649
833.000000, 90.452728
832.000000, 90.436569
831.000000, 90.464699
830.000000, 90.346985
829.000000, 90.289093
828.000000, 90.175705
827.000000, 90.193634
826.000000, 90.179863
825.000000, 89.993713
824.000000, 89.914230
823.000000, 89.803299
822.000000, 89.583916
821.000000, 89.486191
820.000000, 89.251518
819.000000, 88.921928
818.000000, 88.777298
817.000000, 88.496040
816.000000, 88.238678
815.000000, 88.009415
814.000000, 87.512329
813.000000, 87.314728
812.000000, 86.819313
811.000000, 86.419144
810.000000, 86.010376
809.000000, 85.592392
808.000000, 85.283455
807.000000, 84.878365
806.000000, 84.162529
805.000000, 82.783638
804.000000, 80.367645
803.000000, 76.993370
802.000000, 72.598747
801.000000, 67.037819
800.000000, 60.623455
799.000000, 60.747623
798.000000, 41.037956
797.000000, 23.966946
796.000000, 12.796730
795.000000, 6.648630
794.000000, 3.486429
793.000000, 1.874670
792.000000, 1.039547
791.000000, 0.596094
790.000000, 0.351274
789.000000, 0.210995
788.000000, 0.129718
787.000000, 0.081922
786.000000, 0.052294
785.000000, 0.034149
784.000000, 0.022562
783.000000, 0.015016
782.000000, 0.010129
781.000000, 0.006927
780.000000, 0.004806
779.000000, 0.003341
778.000000, 0.002353
777.000000, 0.001688
776.000000, 0.001194
775.000000, 0.000867
774.000000, 0.000645
773.000000, 0.000474
772.000000, 0.000367
771.000000, 0.000259
770.000000, 0.000201
769.000000, 0.000148
768.000000, 0.000130
767.000000, 0.000089
766.000000, 0.000076
765.000000, 0.000058
764.000000, 0.000049
763.000000, 0.000053
762.000000, 0.000034
761.000000, 0.000035
760.000000, 0.000025
759.000000, 0.000019
758.000000, 0.000037
757.000000, 0.000016
756.000000, 0.000025
755.000000, 0.000024
754.000000, 0.000031
753.000000, 0.000018
752.000000, 0.000015
751.000000, 0.000013
750.000000, 0.000018
749.000000, 0.000029
748.000000, 0.000015
747.000000, 0.000020
746.000000, 0.000009
745.000000, 0.000011
744.000000, 0.000029
743.000000, 0.000009
742.000000, 0.000016
741.000000, 0.000010
740.000000, 0.000022
739.000000, 0.000016
738.000000, 0.000012
737.000000, 0.000014
736.000000, 0.000010
735.000000, 0.000019
734.000000, 0.000017
733.000000, 0.000004
732.000000, 0.000009
731.000000, 0.000016
730.000000, 0.000013
729.000000, 0.000012
728.000000, 0.000008
727.000000, 0.000017
726.000000, 0.000004
725.000000, 0.000012
724.000000, 0.000018
723.000000, 0.000005
722.000000, 0.000019
721.000000, 0.000009
720.000000, 0.000008
719.000000, 0.000008
718.000000, 0.000014
717.000000, 0.000003
716.000000, 0.000006
715.000000, 0.000010
714.000000, 0.000016
713.000000, 0.000007
712.000000, 0.000003
711.000000, 0.000003
710.000000, 0.000009
709.000000, 0.000008
708.000000, 0.000003
707.000000, 0.000006
706.000000, 0.000020
705.000000, -0.000001
704.000000, 0.000005
703.000000, -0.000000
702.000000, 0.000009
701.000000, 0.000001
700.000000, -0.000005
699.000000, 0.000011
698.000000, 0.000000
697.000000, -0.000002
696.000000, 0.000009
695.000000, -0.000002
694.000000, -0.000003
693.000000, 0.000007
692.000000, 0.000008
691.000000, 0.000001
690.000000, -0.000005
689.000000, 0.000012
688.000000, -0.000002
687.000000, 0.000002
686.000000, 0.000011
685.000000, 0.000001
684.000000, -0.000002
683.000000, -0.000001
682.000000, 0.000006
681.000000, -0.000006
680.000000, -0.000001
679.000000, 0.000006
678.000000, -0.000000
677.000000, -0.000002
676.000000, 0.000010
675.000000, 0.000003
674.000000, -0.000006
673.000000, 0.000006
672.000000, 0.000008
671.000000, -0.000001
670.000000, 0.000002
669.000000, 0.000000
668.000000, 0.000011
667.000000, 0.000001
666.000000, 0.000002
665.000000, -0.000003
664.000000, -0.000009
663.000000, -0.000004
662.000000, 0.000001
661.000000, 0.000010
660.000000, 0.000003
659.000000, -0.000001
658.000000, -0.000000
657.000000, 0.000003
656.000000, -0.000003
655.000000, -0.000003
654.000000, -0.000000
653.000000, -0.000003
652.000000, 0.000002
651.000000, 0.000003
650.000000, 0.000003
649.000000, 0.000000
648.000000, 0.000001
647.000000, -0.000002
646.000000, 0.000005
645.000000, -0.000012
644.000000, 0.000008
643.000000, -0.000006
642.000000, -0.000004
641.000000, -0.000003
640.000000, -0.000000
639.000000, -0.000008
638.000000, -0.000006
637.000000, -0.000008
636.000000, 0.000006
635.000000, -0.000001
634.000000, 0.000004
633.000000, 0.000006
632.000000, -0.000004
631.000000, 0.000001
630.000000, -0.000002
629.000000, 0.000002
628.000000, -0.000003
627.000000, -0.000000
626.000000, 0.000000
625.000000, -0.000000
624.000000, 0.000004
623.000000, -0.000004
622.000000, -0.000006
621.000000, 0.000006
620.000000, -0.000000
619.000000, -0.000002
618.000000, -0.000002
617.000000, 0.000003
616.000000, 0.000004
615.000000, -0.000001
614.000000, -0.000004
613.000000, 0.000005
612.000000, 0.000005
611.000000, 0.000001
610.000000, -0.000003
609.000000, 0.000003
608.000000, 0.000001
607.000000, -0.000000
606.000000, -0.000009
605.000000, 0.000004
604.000000, 0.000004
603.000000, 0.000001
602.000000, -0.000002
601.000000, -0.000011
600.000000, -0.000001
599.000000, -0.000003
598.000000, -0.000010
597.000000, -0.000000
596.000000, 0.000001
595.000000, -0.000008
594.000000, -0.000000
593.000000, -0.000013
592.000000, -0.000001
591.000000, -0.000002
590.000000, -0.000010
589.000000, -0.000002
588.000000, -0.000001
587.000000, -0.000013
586.000000, -0.000002
585.000000, 0.000000
584.000000, -0.000014
583.000000, -0.000000
582.000000, 0.000000
581.000000, -0.000006
580.000000, -0.000012
579.000000, 0.000004
578.000000, 0.000002
577.000000, 0.000001
576.000000, 0.000004
575.000000, -0.000001
574.000000, -0.000011
573.000000, 0.000001
572.000000, -0.000001
571.000000, -0.000001
570.000000, -0.000000
569.000000, -0.000003
568.000000, 0.000006
567.000000, -0.000002
566.000000, 0.000004
565.000000, -0.000001
564.000000, 0.000002
563.000000, 0.000002
562.000000, -0.000003
561.000000, 0.000003
560.000000, -0.000004
559.000000, 0.000004
558.000000, 0.000003
557.000000, 0.000000
556.000000, 0.000003
555.000000, 0.000005
554.000000, 0.000006
553.000000, 0.000001
552.000000, -0.000001
551.000000, 0.000003
550.000000, 0.000001
549.000000, -0.000002
548.000000, 0.000003
547.000000, 0.000001
546.000000, 0.000004
545.000000, 0.000002
544.000000, 0.000000
543.000000, 0.000003
542.000000, 0.000009
541.000000, 0.000004
540.000000, 0.000004
539.000000, -0.000001
538.000000, 0.000002
537.000000, -0.000006
536.000000, 0.000000
535.000000, 0.000005
534.000000, 0.000001
533.000000, -0.000002
532.000000, 0.000002
531.000000, -0.000003
530.000000, 0.000001
529.000000, -0.000002
528.000000, -0.000000
527.000000, 0.000006
526.000000, -0.000002
525.000000, -0.000003
524.000000, 0.000009
523.000000, 0.000005
522.000000, 0.000003
521.000000, -0.000006
520.000000, 0.000002
519.000000, 0.000005
518.000000, 0.000005
517.000000, 0.000004
516.000000, 0.000001
515.000000, 0.000000
514.000000, 0.000003
513.000000, 0.000001
512.000000, 0.000005
511.000000, 0.000001
510.000000, -0.000001
509.000000, 0.000003
508.000000, 0.000005
507.000000, 0.000007
506.000000, 0.000001
505.000000, 0.000000
504.000000, 0.000004
503.000000, -0.000002
502.000000, -0.000001
501.000000, 0.000004
500.000000, -0.000002
499.000000, 0.000004
498.000000, 0.000001
497.000000, 0.000003
496.000000, 0.000009
495.000000, 0.000001
494.000000, 0.000004
493.000000, 0.000005
492.000000, 0.000003
491.000000, 0.000005
490.000000, 0.000005
489.000000, 0.000005
488.000000, 0.000007
487.000000, -0.000000
486.000000, 0.000005
485.000000, 0.000004
484.000000, 0.000003
483.000000, -0.000001
482.000000, -0.000005
481.000000, 0.000006
480.000000, 0.000006
479.000000, -0.000005
478.000000, 0.000001
477.000000, 0.000000
476.000000, 0.000004
475.000000, 0.000003
474.000000, 0.000002
473.000000, 0.000005
472.000000, 0.000003
471.000000, 0.000005
470.000000, 0.000004
469.000000, -0.000001
468.000000, 0.000004
467.000000, 0.000006
466.000000, -0.000000
465.000000, 0.000003
464.000000, 0.000003
463.000000, 0.000001
462.000000, 0.000004
461.000000, 0.000001
460.000000, 0.000000
459.000000, 0.000000
458.000000, -0.000001
457.000000, 0.000008
456.000000, 0.000003
455.000000, 0.000003
454.000000, 0.000003
453.000000, 0.000007
452.000000, 0.000001
451.000000, 0.000009
450.000000, -0.000001
449.000000, 0.000004
448.000000, -0.000006
447.000000, -0.000002
446.000000, 0.000005
445.000000, 0.000003
444.000000, -0.000004
443.000000, 0.000002
442.000000, 0.000006
441.000000, -0.000006
440.000000, 0.000002
439.000000, 0.000002
438.000000, 0.000005
437.000000, -0.000001
436.000000, 0.000006
435.000000, -0.000009
434.000000, -0.000002
433.000000, 0.000000
432.000000, 0.000002
431.000000, -0.000005
430.000000, 0.000005
429.000000, 0.000008
428.000000, 0.000009
427.000000, -0.000013
426.000000, 0.000003
425.000000, 0.000006
424.000000, 0.000002
423.000000, -0.000013
422.000000, 0.000008
421.000000, 0.000001
420.000000, -0.000005
419.000000, -0.000000
418.000000, 0.000005
417.000000, -0.000006
416.000000, -0.000002
415.000000, 0.000004
414.000000, 0.000008
413.000000, -0.000003
412.000000, 0.000004
411.000000, -0.000002
410.000000, 0.000001
409.000000, -0.000005
408.000000, 0.000003
407.000000, 0.000001
406.000000, 0.000007
405.000000, -0.000003
404.000000, 0.000002
403.000000, 0.000004
402.000000, -0.000001
401.000000, 0.000002
400.000000, 0.000006
399.000000, -0.000009
398.000000, 0.000001
397.000000, -0.000000
396.000000, 0.000011
395.000000, -0.000001
394.000000, 0.000002
393.000000, -0.000009
392.000000, -0.000004
391.000000, 0.000009
390.000000, 0.000003
389.000000, 0.000002
388.000000, -0.000007
387.000000, 0.000010
386.000000, 0.000005
385.000000, 0.000003
384.000000, -0.000000
383.000000, -0.000007
382.000000, 0.000003
381.000000, 0.000006
380.000000, 0.000004
379.000000, 0.000005
378.000000, -0.000004
377.000000, -0.000013
376.000000, 0.000002
375.000000, 0.000002
374.000000, 0.000006
373.000000, -0.000000
372.000000, 0.000006
371.000000, -0.000010
370.000000, 0.000003
369.000000, 0.000001
368.000000, -0.000004
367.000000, -0.000003
366.000000, -0.000003
365.000000, 0.000001
364.000000, 0.000005
363.000000, -0.000011
362.000000, 0.000001
361.000000, 0.000001
360.000000, -0.000015
359.000000, 0.000001
358.000000, -0.000001
357.000000, -0.000012
356.000000, 0.000007
355.000000, -0.000006
354.000000, 0.000002
353.000000, -0.000012
352.000000, 0.000001
351.000000, 0.000007
350.000000, -0.000015
349.000000, -0.000123
348.000000, -0.000015
347.000000, -0.000002
346.000000, 0.000010
345.000000, 0.000002
344.000000, 0.000004
343.000000, 0.000005
342.000000, 0.000012
341.000000, 0.000000
340.000000, 0.000015
339.000000, 0.000000
338.000000, 0.000012
337.000000, -0.000003
336.000000, 0.000011
335.000000, 0.000007
334.000000, -0.000005
333.000000, 0.000002
332.000000, 0.000018
331.000000, -0.000006
330.000000, -0.000004
329.000000, 0.000022
328.000000, 0.000004
327.000000, 0.000008
326.000000, 0.000010
325.000000, 0.000012
324.000000, 0.000003
323.000000, 0.000004
322.000000, 0.000001
321.000000, 0.000000
320.000000, 0.000021
319.000000, 0.000010
318.000000, 0.000007
317.000000, -0.000002
316.000000, 0.000009
315.000000, 0.000025
314.000000, 0.000012
313.000000, 0.000016
312.000000, 0.000012
311.000000, 0.000012
310.000000, 0.000017
309.000000, 0.000041
308.000000, 0.000013
307.000000, 0.000020
306.000000, 0.000022
305.000000, 0.000034
304.000000, 0.000032
303.000000, 0.000024
302.000000, 0.000040
301.000000, 0.000035
300.000000, 0.000029
299.000000, 0.000046
298.000000, 0.000027
297.000000, 0.000040
296.000000, 0.000040
295.000000, 0.000034
294.000000, 0.000061
293.000000, 0.000037
292.000000, 0.000029
291.000000, 0.000051
290.000000, 0.000031
289.000000, 0.000049
288.000000, 0.000040
287.000000, 0.000039
286.000000, 0.000056
285.000000, 0.000038
284.000000, 0.000042
283.000000, 0.000054
282.000000, 0.000043
281.000000, 0.000038
280.000000, 0.000054
279.000000, 0.000045
278.000000, 0.000045
277.000000, 0.000052
276.000000, 0.000036
275.000000, 0.000035
274.000000, 0.000042
273.000000, 0.000055
272.000000, 0.000046
271.000000, 0.000034
270.000000, 0.000052
269.000000, 0.000050
268.000000, 0.000048
267.000000, 0.000038
266.000000, 0.000046
265.000000, 0.000043
264.000000, 0.000048
263.000000, 0.000040
262.000000, 0.000040
261.000000, 0.000044
260.000000, 0.000054
259.000000, 0.000034
258.000000, 0.000044
257.000000, 0.000042
256.000000, 0.000039
255.000000, 0.000032
254.000000, 0.000030
253.000000, 0.000038
252.000000, 0.000031
251.000000, 0.000033
250.000000, 0.000047
249.000000, 0.000036
248.000000, 0.000032
247.000000, 0.000048
246.000000, 0.000044
245.000000, 0.000048
244.000000, 0.000040
243.000000, 0.000056
242.000000, 0.000048
241.000000, 0.000044
240.000000, 0.000055
239.000000, 0.000060
238.000000, 0.000066
237.000000, 0.000056
236.000000, 0.000052
235.000000, 0.000059
234.000000, 0.000064
233.000000, 0.000065
232.000000, 0.000065
231.000000, 0.000070
230.000000, 0.000073
229.000000, 0.000079
228.000000, 0.000075
227.000000, 0.000075
226.000000, 0.000081
225.000000, 0.000060
224.000000, 0.000081
223.000000, 0.000083
222.000000, 0.000069
221.000000, 0.000077
220.000000, 0.000073
219.000000, 0.000064
218.000000, 0.000081
217.000000, 0.000074
216.000000, 0.000065
215.000000, 0.000074
214.000000, 0.000065
213.000000, 0.000076
212.000000, 0.000079
211.000000, 0.000063
210.000000, 0.000071
209.000000, 0.000064
208.000000, 0.000063
207.000000, 0.000081
206.000000, 0.000065
205.000000, 0.000066
204.000000, 0.000052
203.000000, 0.000072
202.000000, 0.000055
201.000000, 0.000058
200.000000, 0.000063