# Wavelength  (nm), Transmission (%)
200.000000, 29.315343
210.000000, 27.825490
220.000000, 26.075738
230.000000, 24.459028
240.000000, 23.239160
250.000000, 22.576732
260.000000, 22.494196
270.000000, 22.920533
280.000000, 23.734026
290.000000, 24.765492
300.000000, 25.891235
310.000000, 27.018430
320.000000, 28.017742
330.000000, 28.845462
340.000000, 29.475883
350.000000, 29.905979
360.000000, 30.186230
370.000000, 30.330999
380.000000, 30.344330
390.000000, 30.281265
400.000000, 30.153910
410.000000, 29.943477
420.000000, 29.713716
430.000000, 29.471977
440.000000, 29.182474
450.000000, 28.886289
460.000000, 28.599284
470.000000, 28.285138
480.000000, 27.968479
490.000000, 27.679903
500.000000, 27.382140
510.000000, 27.090768
520.000000, 26.819338
530.000000, 26.533403
540.000000, 26.258877
550.000000, 25.995402
560.000000, 25.728973
570.000000, 25.465854
580.000000, 25.211594
590.000000, 24.967981
600.000000, 24.717893
610.000000, 24.479218
620.000000, 24.253402
630.000000, 24.021990
640.000000, 23.810447
650.000000, 23.615187
660.000000, 23.404308
670.000000, 23.210850
680.000000, 23.036106
690.000000, 22.852162
700.000000, 22.682256
710.000000, 22.535400
720.000000, 22.381476
730.000000, 22.241880
740.000000, 22.129608
750.000000, 22.010669
760.000000, 21.905683
770.000000, 21.815860
780.000000, 21.712477
790.000000, 21.634369
800.000000, 21.569014
810.000000, 21.501339
820.000000, 21.447202
830.000000, 21.396341
840.000000, 21.340458
850.000000, 21.399197
860.000000, 21.469567
870.000000, 21.435620
880.000000, 21.386266
890.000000, 21.351889
900.000000, 21.318375
910.000000, 21.277443
920.000000, 21.234276
930.000000, 21.195887
940.000000, 21.162506
950.000000, 21.121044
960.000000, 21.085377
970.000000, 21.054851
980.000000, 21.014622
990.000000, 20.974105
1000.000000, 20.935168
1010.000000, 20.895763
1020.000000, 20.835913
1030.000000, 20.777738
1040.000000, 20.748093
1050.000000, 20.711710
1060.000000, 20.676144
1070.000000, 20.642782
1080.000000, 20.606860
1090.000000, 20.550684
1100.000000, 20.493868
1110.000000, 20.456056
1120.000000, 20.433989
1130.000000, 20.408127
1140.000000, 20.357589
1150.000000, 20.302845
1160.000000, 20.249676
1170.000000, 20.207128
1180.000000, 20.164426
1190.000000, 20.121464
1200.000000, 20.063663
1210.000000, 20.007564
1220.000000, 19.962318
1230.000000, 19.923729
1240.000000, 19.869664
1250.000000, 19.804601
1260.000000, 19.752389
1270.000000, 19.711067
1280.000000, 19.677523
1290.000000, 19.625027
1300.000000, 19.587213
1310.000000, 19.556335
1320.000000, 19.490474
1330.000000, 19.399538
1340.000000, 19.340059
1350.000000, 19.309264
1360.000000, 19.269412
1370.000000, 19.116342
1380.000000, 18.919878
1390.000000, 18.865681
1400.000000, 18.895376
1410.000000, 18.929139
1420.000000, 18.923305
1430.000000, 18.874641
1440.000000, 18.826504
1450.000000, 18.750649
1460.000000, 18.678800
1470.000000, 18.625349
1480.000000, 18.613728
1490.000000, 18.578662
1500.000000, 18.536372
1510.000000, 18.458773
1520.000000, 18.357726
1530.000000, 18.331941
1540.000000, 18.287991
1550.000000, 18.228548
1560.000000, 18.170072
1570.000000, 18.110518
1580.000000, 18.066550
1590.000000, 18.018302
1600.000000, 17.970643
1610.000000, 17.910749
1620.000000, 17.856691
1630.000000, 17.802655
1640.000000, 17.752044
1650.000000, 17.706832
1660.000000, 17.680031
1670.000000, 17.663711
1680.000000, 17.633566
1690.000000, 17.526627
1700.000000, 17.443274
1710.000000, 17.396989
1720.000000, 17.346722
1730.000000, 17.318930
1740.000000, 17.276654
1750.000000, 17.218438
1760.000000, 17.202192
1770.000000, 17.199712
1780.000000, 17.162798
1790.000000, 17.096569
1800.000000, 17.009406
1810.000000, 16.958187
1820.000000, 16.919395
1830.000000, 16.893978
1840.000000, 16.860840
1850.000000, 16.794574
1860.000000, 16.756057
1870.000000, 16.795624
1880.000000, 16.702158
1890.000000, 16.593757
1900.000000, 16.501892
1910.000000, 16.469394
1920.000000, 16.470481
1930.000000, 16.451342
1940.000000, 16.456602
1950.000000, 16.415474
1960.000000, 16.401235
1970.000000, 16.380806
1980.000000, 16.287682
1990.000000, 16.245525
2000.000000, 16.202521
2010.000000, 16.174009
2020.000000, 16.140783
2030.000000, 16.108260
2040.000000, 16.043925
2050.000000, 15.966839
2060.000000, 15.969272
2070.000000, 15.934428
2080.000000, 15.944000
2090.000000, 15.916301
2100.000000, 15.834444
2110.000000, 15.766261
2120.000000, 15.726205
2130.000000, 15.722519
2140.000000, 15.681920
2150.000000, 15.607921
2160.000000, 15.554176
2170.000000, 15.499279
2180.000000, 15.410839
2190.000000, 15.260162
2200.000000, 14.929707
2210.000000, 14.716885
2220.000000, 14.751625
2230.000000, 14.836939
2240.000000, 14.839495
2250.000000, 14.822422
2260.000000, 14.864484
2270.000000, 14.923073
2280.000000, 14.971800
2290.000000, 15.009937
2300.000000, 15.003174
2310.000000, 15.025853
2320.000000, 15.020263
2330.000000, 15.020726
2340.000000, 15.000751
2350.000000, 14.942681
2360.000000, 14.904618
2370.000000, 14.882290
2380.000000, 14.879368
2390.000000, 14.849969
2400.000000, 14.784680
2410.000000, 14.745733
2420.000000, 14.706232
2430.000000, 14.669941
2440.000000, 14.616546
2450.000000, 14.546499
2460.000000, 14.509381
2470.000000, 14.478387
2480.000000, 14.440349
2490.000000, 14.377271
2500.000000, 14.286936
2510.000000, 14.214572
2520.000000, 14.137955
2530.000000, 14.069070
2540.000000, 13.989264
2550.000000, 13.854045
2560.000000, 13.776991
2570.000000, 13.677549
2580.000000, 13.536528
2590.000000, 13.718249
2600.000000, 13.657362
