# Wavelength  (nm), Transmission (%)
200.000000, 0.004593
201.000000, 0.004483
202.000000, 0.004340
203.000000, 0.004305
204.000000, 0.004136
205.000000, 0.004105
206.000000, 0.003903
207.000000, 0.003791
208.000000, 0.003705
209.000000, 0.003591
210.000000, 0.003485
211.000000, 0.003433
212.000000, 0.003307
213.000000, 0.003276
214.000000, 0.003227
215.000000, 0.003163
216.000000, 0.003114
217.000000, 0.003126
218.000000, 0.003091
219.000000, 0.003053
220.000000, 0.003088
221.000000, 0.003086
222.000000, 0.003070
223.000000, 0.003090
224.000000, 0.003063
225.000000, 0.003074
226.000000, 0.003082
227.000000, 0.003125
228.000000, 0.003128
229.000000, 0.003125
230.000000, 0.003115
231.000000, 0.003105
232.000000, 0.003141
233.000000, 0.003075
234.000000, 0.003064
235.000000, 0.003049
236.000000, 0.003026
237.000000, 0.002996
238.000000, 0.002951
239.000000, 0.002894
240.000000, 0.002882
241.000000, 0.002853
242.000000, 0.002831
243.000000, 0.002825
244.000000, 0.002784
245.000000, 0.002748
246.000000, 0.002731
247.000000, 0.002703
248.000000, 0.002647
249.000000, 0.002645
250.000000, 0.002632
251.000000, 0.002612
252.000000, 0.002566
253.000000, 0.002583
254.000000, 0.002555
255.000000, 0.002542
256.000000, 0.002538
257.000000, 0.002484
258.000000, 0.002492
259.000000, 0.002467
260.000000, 0.002427
261.000000, 0.002418
262.000000, 0.002408
263.000000, 0.002397
264.000000, 0.002387
265.000000, 0.002359
266.000000, 0.002339
267.000000, 0.002324
268.000000, 0.002284
269.000000, 0.002297
270.000000, 0.002276
271.000000, 0.002270
272.000000, 0.002269
273.000000, 0.002256
274.000000, 0.002256
275.000000, 0.002254
276.000000, 0.002215
277.000000, 0.002182
278.000000, 0.002184
279.000000, 0.002183
280.000000, 0.002211
281.000000, 0.002152
282.000000, 0.002134
283.000000, 0.002131
284.000000, 0.002108
285.000000, 0.002054
286.000000, 0.002059
287.000000, 0.002047
288.000000, 0.002013
289.000000, 0.001975
290.000000, 0.001942
291.000000, 0.001898
292.000000, 0.001831
293.000000, 0.001779
294.000000, 0.001763
295.000000, 0.001649
296.000000, 0.001581
297.000000, 0.001536
298.000000, 0.001480
299.000000, 0.001410
300.000000, 0.001295
301.000000, 0.001281
302.000000, 0.001191
303.000000, 0.001094
304.000000, 0.001057
305.000000, 0.000997
306.000000, 0.000883
307.000000, 0.000814
308.000000, 0.000764
309.000000, 0.000723
310.000000, 0.000669
311.000000, 0.000593
312.000000, 0.000586
313.000000, 0.000492
314.000000, 0.000481
315.000000, 0.000422
316.000000, 0.000383
317.000000, 0.000361
318.000000, 0.000288
319.000000, 0.000285
320.000000, 0.000283
321.000000, 0.000224
322.000000, 0.000242
323.000000, 0.000182
324.000000, 0.000194
325.000000, 0.000152
326.000000, 0.000161
327.000000, 0.000138
328.000000, 0.000142
329.000000, 0.000139
330.000000, 0.000116
331.000000, 0.000080
332.000000, 0.000107
333.000000, 0.000093
334.000000, 0.000081
335.000000, 0.000067
336.000000, 0.000079
337.000000, 0.000059
338.000000, 0.000079
339.000000, 0.000053
340.000000, 0.000057
341.000000, 0.000071
342.000000, 0.000059
343.000000, 0.000059
344.000000, 0.000059
345.000000, 0.000056
346.000000, 0.000057
347.000000, 0.000060
348.000000, 0.000078
349.000000, -0.000078
350.000000, 0.000074
351.000000, 0.000086
352.000000, 0.000076
353.000000, 0.000068
354.000000, 0.000081
355.000000, 0.000068
356.000000, 0.000085
357.000000, 0.000072
358.000000, 0.000064
359.000000, 0.000072
360.000000, 0.000058
361.000000, 0.000073
362.000000, 0.000081
363.000000, 0.000061
364.000000, 0.000083
365.000000, 0.000120
366.000000, 0.000220
367.000000, 0.000557
368.000000, 0.001541
369.000000, 0.004014
370.000000, 0.009654
371.000000, 0.021440
372.000000, 0.044036
373.000000, 0.084496
374.000000, 0.150676
375.000000, 0.250350
376.000000, 0.402083
377.000000, 0.623983
378.000000, 0.901665
379.000000, 1.245402
380.000000, 1.778516
381.000000, 2.649840
382.000000, 3.725646
383.000000, 4.852326
384.000000, 6.232780
385.000000, 7.861468
386.000000, 9.311583
387.000000, 10.652915
388.000000, 12.292404
389.000000, 13.972836
390.000000, 15.316984
391.000000, 17.106182
392.000000, 19.528545
393.000000, 20.622560
394.000000, 19.690027
395.000000, 19.626492
396.000000, 23.318649
397.000000, 28.909826
398.000000, 31.435505
399.000000, 30.636778
400.000000, 31.290802
401.000000, 35.353306
402.000000, 38.808033
403.000000, 38.691795
404.000000, 38.464279
405.000000, 41.791271
406.000000, 45.637383
407.000000, 44.827877
408.000000, 41.149815
409.000000, 41.428257
410.000000, 47.645451
411.000000, 52.757782
412.000000, 49.651688
413.000000, 41.835506
414.000000, 38.917095
415.000000, 45.170357
416.000000, 55.898827
417.000000, 59.884930
418.000000, 53.723068
419.000000, 46.607445
420.000000, 47.594418
421.000000, 56.416237
422.000000, 64.226196
423.000000, 62.358528
424.000000, 53.648914
425.000000, 48.240005
426.000000, 51.486843
427.000000, 60.881359
428.000000, 68.270912
429.000000, 67.791252
430.000000, 62.394291
431.000000, 59.778629
432.000000, 63.140713
433.000000, 68.913414
434.000000, 71.182137
435.000000, 68.085114
436.000000, 64.310554
437.000000, 64.982803
438.000000, 70.359161
439.000000, 75.061821
440.000000, 73.364464
441.000000, 66.246849
442.000000, 60.039639
443.000000, 60.101360
444.000000, 66.734436
445.000000, 74.739288
446.000000, 75.849525
447.000000, 67.796005
448.000000, 57.300938
449.000000, 51.738091
450.000000, 53.873241
451.000000, 62.545174
452.000000, 71.947922
453.000000, 73.404106
454.000000, 64.374504
455.000000, 51.550529
456.000000, 42.427654
457.000000, 39.373024
458.000000, 40.597458
459.000000, 41.309784
460.000000, 36.027084
461.000000, 24.958500
462.000000, 14.098905
463.000000, 6.783666
464.000000, 3.814977
465.000000, 2.248075
466.000000, 1.474661
467.000000, 1.067432
468.000000, 0.840939
469.000000, 0.719257
470.000000, 0.662588
471.000000, 0.653809
472.000000, 0.691935
473.000000, 0.788834
474.000000, 0.989383
475.000000, 1.421975
476.000000, 2.670133
477.000000, 7.642173
478.000000, 18.327168
479.000000, 25.254858
480.000000, 18.606337
481.000000, 6.719475
482.000000, 2.390518
483.000000, 1.172442
484.000000, 0.786056
485.000000, 0.633427
486.000000, 0.582432
487.000000, 0.602193
488.000000, 0.695035
489.000000, 0.893976
490.000000, 1.257258
491.000000, 1.809956
492.000000, 2.455234
493.000000, 2.900949
494.000000, 2.948998
495.000000, 2.727661
496.000000, 2.526163
497.000000, 2.565070
498.000000, 3.034530
499.000000, 4.425045
500.000000, 8.605273
501.000000, 19.198118
502.000000, 33.876705
503.000000, 38.954769
504.000000, 29.061377
505.000000, 16.206013
506.000000, 9.715897
507.000000, 7.860206
508.000000, 8.297310
509.000000, 11.167749
510.000000, 18.919308
511.000000, 33.743546
512.000000, 48.356472
513.000000, 49.408810
514.000000, 36.501308
515.000000, 22.925991
516.000000, 15.761091
517.000000, 13.495265
518.000000, 14.212194
519.000000, 18.041792
520.000000, 26.377886
521.000000, 39.173614
522.000000, 50.164421
523.000000, 50.525848
524.000000, 40.386562
525.000000, 28.758583
526.000000, 21.207544
527.000000, 17.942373
528.000000, 17.606245
529.000000, 19.867212
530.000000, 25.276651
531.000000, 34.737621
532.000000, 46.957291
533.000000, 56.577003
534.000000, 57.650436
535.000000, 50.590408
536.000000, 41.332687
537.000000, 34.692970
538.000000, 31.827026
539.000000, 32.438408
540.000000, 36.473610
541.000000, 43.980614
542.000000, 54.171116
543.000000, 63.962448
544.000000, 68.867424
545.000000, 66.467575
546.000000, 59.195309
547.000000, 51.332581
548.000000, 45.904537
549.000000, 43.712185
550.000000, 44.696392
551.000000, 48.698921
552.000000, 55.500454
553.000000, 63.711781
554.000000, 70.932961
555.000000, 74.335548
556.000000, 72.635727
557.000000, 67.285645
558.000000, 61.124283
559.000000, 56.317730
560.000000, 53.805519
561.000000, 53.840500
562.000000, 56.337845
563.000000, 60.918522
564.000000, 66.762581
565.000000, 72.719315
566.000000, 76.902214
567.000000, 78.123817
568.000000, 76.346291
569.000000, 72.670074
570.000000, 68.880394
571.000000, 66.075180
572.000000, 64.839989
573.000000, 65.420761
574.000000, 67.717148
575.000000, 71.258163
576.000000, 75.294525
577.000000, 78.851616
578.000000, 80.975327
579.000000, 81.156670
580.000000, 79.678055
581.000000, 77.239319
582.000000, 74.684944
583.000000, 72.854355
584.000000, 72.076500
585.000000, 72.484741
586.000000, 74.128944
587.000000, 76.617538
588.000000, 79.516975
589.000000, 82.282028
590.000000, 84.206467
591.000000, 85.090950
592.000000, 84.768982
593.000000, 83.577309
594.000000, 82.035172
595.000000, 80.576012
596.000000, 79.576889
597.000000, 79.301361
598.000000, 79.747177
599.000000, 80.809792
600.000000, 82.237564
601.000000, 83.684502
602.000000, 84.897629
603.000000, 85.630096
604.000000, 85.758949
605.000000, 85.381859
606.000000, 84.663651
607.000000, 83.801086
608.000000, 83.092499
609.000000, 82.734993
610.000000, 82.814133
611.000000, 83.335274
612.000000, 84.192047
613.000000, 85.297646
614.000000, 86.418655
615.000000, 87.431023
616.000000, 88.181694
617.000000, 88.586861
618.000000, 88.637398
619.000000, 88.442879
620.000000, 88.066681
621.000000, 87.718788
622.000000, 87.468979
623.000000, 87.436249
624.000000, 87.595612
625.000000, 87.908783
626.000000, 88.277176
627.000000, 88.599236
628.000000, 88.851669
629.000000, 88.918007
630.000000, 88.692383
631.000000, 88.330376
632.000000, 87.789520
633.000000, 87.233772
634.000000, 86.714455
635.000000, 86.353279
636.000000, 86.175964
637.000000, 86.195412
638.000000, 86.400314
639.000000, 86.846169
640.000000, 87.328873
641.000000, 87.884560
642.000000, 88.387543
643.000000, 88.793594
644.000000, 89.052933
645.000000, 89.131470
646.000000, 89.071846
647.000000, 88.947067
648.000000, 88.758232
649.000000, 88.565529
650.000000, 88.428978
651.000000, 88.401443
652.000000, 88.427261
653.000000, 88.534012
654.000000, 88.719849
655.000000, 88.911400
656.000000, 89.084969
657.000000, 89.243530
658.000000, 89.351883
659.000000, 89.406593
660.000000, 89.376274
661.000000, 89.339432
662.000000, 89.259613
663.000000, 89.203323
664.000000, 89.169540
665.000000, 89.199104
666.000000, 89.304123
667.000000, 89.402298
668.000000, 89.560463
669.000000, 89.696655
670.000000, 89.805977
671.000000, 89.890465
672.000000, 89.930656
673.000000, 89.909897
674.000000, 89.811867
675.000000, 89.712563
676.000000, 89.614166
677.000000, 89.546188
678.000000, 89.502434
679.000000, 89.492424
680.000000, 89.572395
681.000000, 89.676796
682.000000, 89.847977
683.000000, 90.046524
684.000000, 90.244896
685.000000, 90.361664
686.000000, 90.519592
687.000000, 90.523849
688.000000, 90.420670
689.000000, 90.305435
690.000000, 90.119057
691.000000, 89.848137
692.000000, 89.576187
693.000000, 89.316788
694.000000, 89.111542
695.000000, 88.960457
696.000000, 88.915924
697.000000, 88.992920
698.000000, 89.078049
699.000000, 89.230248
700.000000, 89.415672
701.000000, 89.660301
702.000000, 89.838837
703.000000, 89.950737
704.000000, 90.022438
705.000000, 90.002045
706.000000, 89.943466
707.000000, 89.760986
708.000000, 89.595123
709.000000, 89.415207
710.000000, 89.214325
711.000000, 89.025986
712.000000, 88.937363
713.000000, 88.917885
714.000000, 88.930107
715.000000, 89.075951
716.000000, 89.219490
717.000000, 89.459656
718.000000, 89.696625
719.000000, 89.926079
720.000000, 90.074165
721.000000, 90.267670
722.000000, 90.347214
723.000000, 90.404190
724.000000, 90.345619
725.000000, 90.214180
726.000000, 90.095863
727.000000, 89.958710
728.000000, 89.796120
729.000000, 89.635628
730.000000, 89.476692
731.000000, 89.418144
732.000000, 89.321014
733.000000, 89.348640
734.000000, 89.395714
735.000000, 89.380089
736.000000, 89.514786
737.000000, 89.458176
738.000000, 89.551636
739.000000, 89.569931
740.000000, 89.571579
741.000000, 89.621742
742.000000, 89.547150
743.000000, 89.539146
744.000000, 89.467773
745.000000, 89.488007
746.000000, 89.537949
747.000000, 89.592972
748.000000, 89.642838
749.000000, 89.742249
750.000000, 89.783470
751.000000, 89.863136
752.000000, 89.916321
753.000000, 89.969902
754.000000, 90.029350
755.000000, 89.956978
756.000000, 89.959549
757.000000, 89.933754
758.000000, 89.872154
759.000000, 89.897713
760.000000, 89.865860
761.000000, 90.021248
762.000000, 90.089127
763.000000, 90.124260
764.000000, 90.333954
765.000000, 90.398209
766.000000, 90.445641
767.000000, 90.377220
768.000000, 90.297394
769.000000, 90.048630
770.000000, 89.703171
771.000000, 89.430580
772.000000, 89.077667
773.000000, 88.726898
774.000000, 88.494614
775.000000, 88.411514
776.000000, 88.328766
777.000000, 88.393745
778.000000, 88.556992
779.000000, 88.760284
780.000000, 88.989929
781.000000, 89.210304
782.000000, 89.415237
783.000000, 89.473915
784.000000, 89.734528
785.000000, 89.800491
786.000000, 89.699181
787.000000, 89.297119
788.000000, 88.346252
789.000000, 85.827209
790.000000, 80.768074
791.000000, 72.117821
792.000000, 59.930176
793.000000, 45.558064
794.000000, 31.550873
795.000000, 19.972685
796.000000, 11.740484
797.000000, 6.544307
798.000000, 3.582702
799.000000, 1.956620
800.000000, 15.400009
801.000000, 13.253935
802.000000, 11.267275
803.000000, 9.551930
804.000000, 7.909163
805.000000, 6.420971
806.000000, 5.166438
807.000000, 4.035848
808.000000, 3.087862
809.000000, 2.283366
810.000000, 1.634335
811.000000, 1.103631
812.000000, 0.711989
813.000000, 0.444808
814.000000, 0.266423
815.000000, 0.159174
816.000000, 0.094592
817.000000, 0.055810
818.000000, 0.033287
819.000000, 0.021203
820.000000, 0.014122
821.000000, 0.009676
822.000000, 0.007309
823.000000, 0.005222
824.000000, 0.004196
825.000000, 0.003525
826.000000, 0.003078
827.000000, 0.002560
828.000000, 0.002458
829.000000, 0.001949
830.000000, 0.001670
831.000000, 0.001478
832.000000, 0.001535
833.000000, 0.001275
834.000000, 0.001041
835.000000, 0.001084
836.000000, 0.000935
837.000000, 0.000805
838.000000, 0.000981
839.000000, 0.000750
840.000000, 0.000926
841.000000, 0.000961
842.000000, 0.000979
843.000000, 0.000507
844.000000, 0.000677
845.000000, 0.000714
846.000000, 0.000825
847.000000, 0.000581
848.000000, 0.000622
849.000000, 0.000786
850.000000, 0.000819
851.000000, 0.000642
852.000000, 0.000637
853.000000, 0.000602
854.000000, 0.000644
855.000000, 0.000611
856.000000, 0.000552
857.000000, 0.000674
858.000000, 0.000723
859.000000, 0.000574
860.000000, 0.000668
861.000000, 0.000532
862.000000, 0.000499
863.000000, 0.000663
864.000000, 0.000584
865.000000, 0.000749
866.000000, 0.000469
867.000000, 0.000525
868.000000, 0.000572
869.000000, 0.000607
870.000000, 0.000782
871.000000, 0.000569
872.000000, 0.000623
873.000000, 0.000565
874.000000, 0.000540
875.000000, 0.000471
876.000000, 0.000666
877.000000, 0.000665
878.000000, 0.000543
879.000000, 0.000463
880.000000, 0.000595
881.000000, 0.000460
882.000000, 0.000594
883.000000, 0.000446
884.000000, 0.000527
885.000000, 0.000534
886.000000, 0.000468
887.000000, 0.000469
888.000000, 0.000478
889.000000, 0.000597
890.000000, 0.000434
891.000000, 0.000584
892.000000, 0.000472
893.000000, 0.000465
894.000000, 0.000531
895.000000, 0.000461
896.000000, 0.000486
897.000000, 0.000471
898.000000, 0.000503
899.000000, 0.000507
900.000000, 0.000496
901.000000, 0.000496
902.000000, 0.000424
903.000000, 0.000516
904.000000, 0.000404
905.000000, 0.000452
906.000000, 0.000525
907.000000, 0.000445
908.000000, 0.000522
909.000000, 0.000609
910.000000, 0.000529
911.000000, 0.000424
912.000000, 0.000501
913.000000, 0.000485
914.000000, 0.000542
915.000000, 0.000516
916.000000, 0.000460
917.000000, 0.000511
918.000000, 0.000447
919.000000, 0.000469
920.000000, 0.000550
921.000000, 0.000533
922.000000, 0.000499
923.000000, 0.000501
924.000000, 0.000483
925.000000, 0.000448
926.000000, 0.000522
927.000000, 0.000451
928.000000, 0.000479
929.000000, 0.000593
930.000000, 0.000586
931.000000, 0.000480
932.000000, 0.000570
933.000000, 0.000470
934.000000, 0.000454
935.000000, 0.000502
936.000000, 0.000526
937.000000, 0.000523
938.000000, 0.000523
939.000000, 0.000517
940.000000, 0.000521
941.000000, 0.000528
942.000000, 0.000491
943.000000, 0.000490
944.000000, 0.000446
945.000000, 0.000475
946.000000, 0.000483
947.000000, 0.000363
948.000000, 0.000483
949.000000, 0.000533
950.000000, 0.000441
951.000000, 0.000499
952.000000, 0.000493
953.000000, 0.000537
954.000000, 0.000518
955.000000, 0.000498
956.000000, 0.000574
957.000000, 0.000558
958.000000, 0.000460
959.000000, 0.000413
960.000000, 0.000506
961.000000, 0.000569
962.000000, 0.000503
963.000000, 0.000469
964.000000, 0.000526
965.000000, 0.000537
966.000000, 0.000454
967.000000, 0.000490
968.000000, 0.000567
969.000000, 0.000532
970.000000, 0.000425
971.000000, 0.000529
972.000000, 0.000529
973.000000, 0.000527
974.000000, 0.000523
975.000000, 0.000467
976.000000, 0.000429
977.000000, 0.000498
978.000000, 0.000504
979.000000, 0.000519
980.000000, 0.000575
981.000000, 0.000501
982.000000, 0.000442
983.000000, 0.000629
984.000000, 0.000492
985.000000, 0.000525
986.000000, 0.000470
987.000000, 0.000619
988.000000, 0.000456
989.000000, 0.000457
990.000000, 0.000521
991.000000, 0.000529
992.000000, 0.000493
993.000000, 0.000491
994.000000, 0.000527
995.000000, 0.000487
996.000000, 0.000469
997.000000, 0.000564
998.000000, 0.000509
999.000000, 0.000468
1000.000000, 0.000431
1001.000000, 0.000437
1002.000000, 0.000445
1003.000000, 0.000506
1004.000000, 0.000562
1005.000000, 0.000458
1006.000000, 0.000491
1007.000000, 0.000510
1008.000000, 0.000435
1009.000000, 0.000469
1010.000000, 0.000527
1011.000000, 0.000546
1012.000000, 0.000460
1013.000000, 0.000538
1014.000000, 0.000511
1015.000000, 0.000377
1016.000000, 0.000535
1017.000000, 0.000562
1018.000000, 0.000567
1019.000000, 0.000580
1020.000000, 0.000553
1021.000000, 0.000454
1022.000000, 0.000518
1023.000000, 0.000545
1024.000000, 0.000502
1025.000000, 0.000510
1026.000000, 0.000626
1027.000000, 0.000525
1028.000000, 0.000417
1029.000000, 0.000473
1030.000000, 0.000425
1031.000000, 0.000472
1032.000000, 0.000550
1033.000000, 0.000484
1034.000000, 0.000527
1035.000000, 0.000561
1036.000000, 0.000461
1037.000000, 0.000526
1038.000000, 0.000497
1039.000000, 0.000447
1040.000000, 0.000496
1041.000000, 0.000490
1042.000000, 0.000551
1043.000000, 0.000519
1044.000000, 0.000479
1045.000000, 0.000521
1046.000000, 0.000514
1047.000000, 0.000508
1048.000000, 0.000544
1049.000000, 0.000525
1050.000000, 0.000471
1051.000000, 0.000514
1052.000000, 0.000501
1053.000000, 0.000465
1054.000000, 0.000543
1055.000000, 0.000516
1056.000000, 0.000561
1057.000000, 0.000522
1058.000000, 0.000509
1059.000000, 0.000524
1060.000000, 0.000560
1061.000000, 0.000536
1062.000000, 0.000554
1063.000000, 0.000536
1064.000000, 0.000469
1065.000000, 0.000503
1066.000000, 0.000468
1067.000000, 0.000502
1068.000000, 0.000497
1069.000000, 0.000415
1070.000000, 0.000538
1071.000000, 0.000538
1072.000000, 0.000570
1073.000000, 0.000489
1074.000000, 0.000446
1075.000000, 0.000497
1076.000000, 0.000480
1077.000000, 0.000558
1078.000000, 0.000496
1079.000000, 0.000510
1080.000000, 0.000527
1081.000000, 0.000524
1082.000000, 0.000501
1083.000000, 0.000508
1084.000000, 0.000517
1085.000000, 0.000536
1086.000000, 0.000492
1087.000000, 0.000535
1088.000000, 0.000589
1089.000000, 0.000505
1090.000000, 0.000503
1091.000000, 0.000457
1092.000000, 0.000577
1093.000000, 0.000507
1094.000000, 0.000567
1095.000000, 0.000508
1096.000000, 0.000645
1097.000000, 0.000582
1098.000000, 0.000680
1099.000000, 0.000772
1100.000000, 0.000699
1101.000000, 0.000796
1102.000000, 0.000892
1103.000000, 0.001001
1104.000000, 0.001247
1105.000000, 0.001484
1106.000000, 0.001945
1107.000000, 0.002392
1108.000000, 0.003131
1109.000000, 0.004223
1110.000000, 0.006018
1111.000000, 0.008700
1112.000000, 0.013425
1113.000000, 0.023525
1114.000000, 0.058672
1115.000000, 0.181921
1116.000000, 0.507144
1117.000000, 1.112756
1118.000000, 1.982886
1119.000000, 2.896784
1120.000000, 4.062095
1121.000000, 5.783309
1122.000000, 8.595959
1123.000000, 11.463040
1124.000000, 12.317907
1125.000000, 10.837664
1126.000000, 8.330106
1127.000000, 6.173886
1128.000000, 4.704381
1129.000000, 3.572410
1130.000000, 2.536577
1131.000000, 1.782584
1132.000000, 1.367304
1133.000000, 1.332772
1134.000000, 1.662497
1135.000000, 2.405786
1136.000000, 3.239542
1137.000000, 4.218311
1138.000000, 5.657810
1139.000000, 8.160627
1140.000000, 12.441011
1141.000000, 20.396065
1142.000000, 31.527931
1143.000000, 41.051311
1144.000000, 44.256947
1145.000000, 38.613983
1146.000000, 28.164471
1147.000000, 18.981272
1148.000000, 12.614756
1149.000000, 8.850941
1150.000000, 6.586258
1151.000000, 5.232547
1152.000000, 4.107722
1153.000000, 3.345049
1154.000000, 2.804278
1155.000000, 2.524978
1156.000000, 2.382312
1157.000000, 2.329298
1158.000000, 2.341201
1159.000000, 2.407994
1160.000000, 2.541359
1161.000000, 2.741501
1162.000000, 3.014608
1163.000000, 3.389374
1164.000000, 3.800614
1165.000000, 4.303215
1166.000000, 5.031410
1167.000000, 6.052408
1168.000000, 7.414304
1169.000000, 9.291653
1170.000000, 12.054705
1171.000000, 16.035353
1172.000000, 21.997478
1173.000000, 30.920130
1174.000000, 43.139725
1175.000000, 56.231384
1176.000000, 67.221436
1177.000000, 72.047646
1178.000000, 68.751946
1179.000000, 58.587723
1180.000000, 45.957058
1181.000000, 35.211628
1182.000000, 26.965990
1183.000000, 21.167046
1184.000000, 17.151894
1185.000000, 14.386529
1186.000000, 12.336787
1187.000000, 10.848347
1188.000000, 9.824501
1189.000000, 9.041978
1190.000000, 8.487999
1191.000000, 8.107345
1192.000000, 7.860050
1193.000000, 7.719160
1194.000000, 7.707319
1195.000000, 7.785363
1196.000000, 7.969087
1197.000000, 8.227947
1198.000000, 8.623818
1199.000000, 9.184981
1200.000000, 9.890455
1201.000000, 10.737995
1202.000000, 11.762440
1203.000000, 13.073882
1204.000000, 14.641253
1205.000000, 16.710085
1206.000000, 19.349104
1207.000000, 22.524107
1208.000000, 26.667112
1209.000000, 31.788528
1210.000000, 38.145454
1211.000000, 45.966850
1212.000000, 55.246037
1213.000000, 64.866074
1214.000000, 73.980202
1215.000000, 80.987564
1216.000000, 84.455658
1217.000000, 83.921608
1218.000000, 79.227394
1219.000000, 71.887268
1220.000000, 63.453220
1221.000000, 55.083687
1222.000000, 47.454166
1223.000000, 41.261330
1224.000000, 35.856522
1225.000000, 31.428263
1226.000000, 28.100264
1227.000000, 25.333595
1228.000000, 23.140509
1229.000000, 21.356258
1230.000000, 19.920622
1231.000000, 18.745289
1232.000000, 17.863567
1233.000000, 17.202339
1234.000000, 16.687267
1235.000000, 16.333927
1236.000000, 16.134562
1237.000000, 16.028803
1238.000000, 16.070484
1239.000000, 16.260904
1240.000000, 16.549673
1241.000000, 16.963560
1242.000000, 17.484968
1243.000000, 18.195488
1244.000000, 19.093510
1245.000000, 20.084436
1246.000000, 21.354227
1247.000000, 22.778542
1248.000000, 24.484106
1249.000000, 26.481670
1250.000000, 28.891954
1251.000000, 31.625282
1252.000000, 34.787006
1253.000000, 38.530186
1254.000000, 42.727760
1255.000000, 47.641705
1256.000000, 53.207050
1257.000000, 59.307926
1258.000000, 65.511223
1259.000000, 71.686104
1260.000000, 77.723763
1261.000000, 82.744942
1262.000000, 86.744354
1263.000000, 89.104424
1264.000000, 89.284775
1265.000000, 87.731934
1266.000000, 84.508591
1267.000000, 80.237511
1268.000000, 75.247971
1269.000000, 69.816078
1270.000000, 64.443771
1271.000000, 59.490669
1272.000000, 54.851723
1273.000000, 50.764423
1274.000000, 47.112534
1275.000000, 43.856369
1276.000000, 40.971931
1277.000000, 38.607220
1278.000000, 36.569302
1279.000000, 34.751419
1280.000000, 33.326321
1281.000000, 32.019764
1282.000000, 30.955061
1283.000000, 30.172152
1284.000000, 29.529064
1285.000000, 29.056698
1286.000000, 28.731697
1287.000000, 28.547863
1288.000000, 28.524538
1289.000000, 28.666861
1290.000000, 28.884062
1291.000000, 29.265165
1292.000000, 29.811605
1293.000000, 30.474541
1294.000000, 31.280262
1295.000000, 32.281082
1296.000000, 33.397408
1297.000000, 34.684521
1298.000000, 36.230537
1299.000000, 37.864212
1300.000000, 39.781540
1301.000000, 41.996925
1302.000000, 44.369194
1303.000000, 46.976654
1304.000000, 49.899925
1305.000000, 53.042049
1306.000000, 56.386524
1307.000000, 60.073654
1308.000000, 64.036781
1309.000000, 67.951134
1310.000000, 71.894661
1311.000000, 75.822601
1312.000000, 79.551117
1313.000000, 82.943001
1314.000000, 85.917213
1315.000000, 88.243156
1316.000000, 89.617554
1317.000000, 90.347237
1318.000000, 90.288277
1319.000000, 89.322861
1320.000000, 87.705391
1321.000000, 85.442131
1322.000000, 82.813446
1323.000000, 79.703300
1324.000000, 76.518997
1325.000000, 73.352905
1326.000000, 69.760971
1327.000000, 66.473465
1328.000000, 63.514744
1329.000000, 60.641701
1330.000000, 58.010590
1331.000000, 55.544163
1332.000000, 53.382248
1333.000000, 51.368492
1334.000000, 49.487598
1335.000000, 47.966530
1336.000000, 46.575920
1337.000000, 45.327827
1338.000000, 44.251068
1339.000000, 43.252792
1340.000000, 42.499397
1341.000000, 41.827972
1342.000000, 41.334068
1343.000000, 40.972633
1344.000000, 40.712624
1345.000000, 40.585674
1346.000000, 40.614620
1347.000000, 40.719135
1348.000000, 40.990166
1349.000000, 41.331638
1350.000000, 41.808788
1351.000000, 42.405411
1352.000000, 43.145485
1353.000000, 44.034203
1354.000000, 45.018257
1355.000000, 46.179195
1356.000000, 47.415329
1357.000000, 48.761826
1358.000000, 50.345673
1359.000000, 52.027142
1360.000000, 53.817661
1361.000000, 55.768269
1362.000000, 57.937008
1363.000000, 60.085213
1364.000000, 62.422527
1365.000000, 65.050873
1366.000000, 67.611496
1367.000000, 70.080101
1368.000000, 72.750542
1369.000000, 75.460526
1370.000000, 77.950935
1371.000000, 80.424156
1372.000000, 82.705627
1373.000000, 84.949959
1374.000000, 86.681900
1375.000000, 88.231346
1376.000000, 89.426872
1377.000000, 90.322319
1378.000000, 90.760643
1379.000000, 90.637764
1380.000000, 90.321823
1381.000000, 89.544113
1382.000000, 88.506767
1383.000000, 87.056496
1384.000000, 85.273911
1385.000000, 83.679047
1386.000000, 81.734985
1387.000000, 79.693428
1388.000000, 77.494820
1389.000000, 75.419395
1390.000000, 73.280869
1391.000000, 71.133057
1392.000000, 69.101448
1393.000000, 67.118904
1394.000000, 65.374908
1395.000000, 63.606239
1396.000000, 61.937477
1397.000000, 60.333752
1398.000000, 59.099380
1399.000000, 57.783432
1400.000000, 56.581833
1401.000000, 55.595078
1402.000000, 54.637901
1403.000000, 53.868187
1404.000000, 53.152805
1405.000000, 52.541405
1406.000000, 52.034367
1407.000000, 51.697445
1408.000000, 51.399750
1409.000000, 51.207333
1410.000000, 51.058693
1411.000000, 51.076763
1412.000000, 51.166512
1413.000000, 51.328571
1414.000000, 51.621418
1415.000000, 51.943367
1416.000000, 52.443409
1417.000000, 53.020512
1418.000000, 53.649151
1419.000000, 54.418659
1420.000000, 55.215965
1421.000000, 56.067085
1422.000000, 57.135624
1423.000000, 58.186359
1424.000000, 59.422928
1425.000000, 60.653370
1426.000000, 62.111717
1427.000000, 63.566113
1428.000000, 65.164391
1429.000000, 66.821877
1430.000000, 68.439560
1431.000000, 70.259445
1432.000000, 72.035332
1433.000000, 73.852554
1434.000000, 75.691261
1435.000000, 77.559052
1436.000000, 79.442879
1437.000000, 81.155716
1438.000000, 82.971710
1439.000000, 84.491501
1440.000000, 85.944580
1441.000000, 87.344017
1442.000000, 88.434235
1443.000000, 89.310783
1444.000000, 90.020172
1445.000000, 90.531357
1446.000000, 90.714050
1447.000000, 90.710541
1448.000000, 90.360168
1449.000000, 89.842934
1450.000000, 89.214607
1451.000000, 88.257904
1452.000000, 87.219101
1453.000000, 85.962242
1454.000000, 84.603127
1455.000000, 83.014587
1456.000000, 81.552628
1457.000000, 79.939163
1458.000000, 78.210625
1459.000000, 76.473007
1460.000000, 74.814659
1461.000000, 73.130760
1462.000000, 71.520958
1463.000000, 69.877281
1464.000000, 68.402649
1465.000000, 66.795967
1466.000000, 65.475655
1467.000000, 63.952225
1468.000000, 62.712013
1469.000000, 61.498878
1470.000000, 60.372238
1471.000000, 59.296001
1472.000000, 58.362804
1473.000000, 57.420147
1474.000000, 56.538975
1475.000000, 55.772869
1476.000000, 55.123192
1477.000000, 54.510338
1478.000000, 54.028313
1479.000000, 53.569485
1480.000000, 53.169243
1481.000000, 52.766472
1482.000000, 52.599926
1483.000000, 52.314262
1484.000000, 52.267258
1485.000000, 52.134823
1486.000000, 52.180408
1487.000000, 52.247723
1488.000000, 52.364182
1489.000000, 52.616459
1490.000000, 52.850430
1491.000000, 53.192989
1492.000000, 53.562935
1493.000000, 54.021698
1494.000000, 54.616581
1495.000000, 55.163895
1496.000000, 55.769093
1497.000000, 56.512035
1498.000000, 57.269691
1499.000000, 58.192680
1500.000000, 59.150314
1501.000000, 60.117523
1502.000000, 61.195839
1503.000000, 62.172966
1504.000000, 63.344021
1505.000000, 64.560768
1506.000000, 65.808144
1507.000000, 67.084213
1508.000000, 68.303589
1509.000000, 69.683914
1510.000000, 71.028595
1511.000000, 72.588013
1512.000000, 74.060043
1513.000000, 75.483032
1514.000000, 76.991676
1515.000000, 78.459129
1516.000000, 79.762222
1517.000000, 81.189026
1518.000000, 82.659233
1519.000000, 83.964577
1520.000000, 85.148354
1521.000000, 86.370476
1522.000000, 87.333214
1523.000000, 88.260307
1524.000000, 89.191338
1525.000000, 89.857307
1526.000000, 90.478546
1527.000000, 91.009781
1528.000000, 91.138336
1529.000000, 91.261322
1530.000000, 91.355499
1531.000000, 91.124962
1532.000000, 90.741234
1533.000000, 90.317863
1534.000000, 89.578819
1535.000000, 89.078857
1536.000000, 88.239326
1537.000000, 87.331841
1538.000000, 86.378510
1539.000000, 85.440834
1540.000000, 84.280304
1541.000000, 83.070412
1542.000000, 82.093376
1543.000000, 80.835579
1544.000000, 79.607674
1545.000000, 78.463493
1546.000000, 77.225266
1547.000000, 76.096825
1548.000000, 75.057655
1549.000000, 73.961502
1550.000000, 72.836876
1551.000000, 71.754578
1552.000000, 70.721664
1553.000000, 69.746544
1554.000000, 68.838593
1555.000000, 67.913452
1556.000000, 67.059036
1557.000000, 66.303497
1558.000000, 65.487518
1559.000000, 64.826607
1560.000000, 64.177551
1561.000000, 63.663250
1562.000000, 63.076508
1563.000000, 62.444489
1564.000000, 62.001781
1565.000000, 61.672317
1566.000000, 61.353077
1567.000000, 61.007427
1568.000000, 60.802715
1569.000000, 60.524567
1570.000000, 60.435665
1571.000000, 60.303204
1572.000000, 60.182674
1573.000000, 60.206753
1574.000000, 60.213017
1575.000000, 60.302849
1576.000000, 60.422981
1577.000000, 60.658134
1578.000000, 60.917557
1579.000000, 61.165070
1580.000000, 61.356007
1581.000000, 61.804897
1582.000000, 62.193359
1583.000000, 62.661354
1584.000000, 63.093803
1585.000000, 63.656624
1586.000000, 64.189430
1587.000000, 64.723488
1588.000000, 65.521149
1589.000000, 66.247108
1590.000000, 66.918678
1591.000000, 67.718742
1592.000000, 68.553955
1593.000000, 69.349083
1594.000000, 70.218971
1595.000000, 71.123634
1596.000000, 71.989929
1597.000000, 72.976013
1598.000000, 73.939590
1599.000000, 74.911842
1600.000000, 75.921432
1601.000000, 76.923386
1602.000000, 77.999657
1603.000000, 79.063339
1604.000000, 79.972755
1605.000000, 81.032333
1606.000000, 81.986847
1607.000000, 82.966522
1608.000000, 83.819572
1609.000000, 84.853729
1610.000000, 85.754250
1611.000000, 86.572739
1612.000000, 87.387825
1613.000000, 88.181923
1614.000000, 88.849190
1615.000000, 89.424591
1616.000000, 89.987480
1617.000000, 90.499031
1618.000000, 90.908089
1619.000000, 91.217064
1620.000000, 91.340584
1621.000000, 91.652206
1622.000000, 91.682938
1623.000000, 91.580139
1624.000000, 91.566154
1625.000000, 91.449615
1626.000000, 91.115608
1627.000000, 90.767624
1628.000000, 90.484901
1629.000000, 90.040459
1630.000000, 89.471939
1631.000000, 88.841820
1632.000000, 88.348366
1633.000000, 87.629829
1634.000000, 86.935326
1635.000000, 86.151520
1636.000000, 85.506859
1637.000000, 84.697937
1638.000000, 83.983284
1639.000000, 83.117668
1640.000000, 82.222054
1641.000000, 81.389381
1642.000000, 80.635880
1643.000000, 79.737274
1644.000000, 78.987640
1645.000000, 78.169250
1646.000000, 77.299210
1647.000000, 76.588211
1648.000000, 75.832748
1649.000000, 75.231316
1650.000000, 74.448860
1651.000000, 73.821754
1652.000000, 73.145889
1653.000000, 72.508224
1654.000000, 71.938164
1655.000000, 71.364891
1656.000000, 70.730202
1657.000000, 70.316452
1658.000000, 69.659355
1659.000000, 69.135628
1660.000000, 68.649612
1661.000000, 68.292961
1662.000000, 67.804703
1663.000000, 67.394440
1664.000000, 66.987625
1665.000000, 66.627533
1666.000000, 66.351143
1667.000000, 66.117104
1668.000000, 65.853546
1669.000000, 65.629433
1670.000000, 65.624855
1671.000000, 65.504868
1672.000000, 65.626732
1673.000000, 65.710709
1674.000000, 65.842148
1675.000000, 66.003838
1676.000000, 66.140884
1677.000000, 66.337410
1678.000000, 66.552162
1679.000000, 66.902946
1680.000000, 67.070740
1681.000000, 67.341835
1682.000000, 67.584961
1683.000000, 67.785934
1684.000000, 68.037819
1685.000000, 68.382111
1686.000000, 68.695518
1687.000000, 69.090424
1688.000000, 69.463898
1689.000000, 69.902489
1690.000000, 70.363075
1691.000000, 70.909103
1692.000000, 71.430977
1693.000000, 72.047127
1694.000000, 72.718300
1695.000000, 73.200157
1696.000000, 73.841766
1697.000000, 74.384995
1698.000000, 74.951424
1699.000000, 75.662056
1700.000000, 76.290901
1701.000000, 77.017372
1702.000000, 77.728210
1703.000000, 78.449783
1704.000000, 79.224686
1705.000000, 79.833809
1706.000000, 80.613403
1707.000000, 81.384743
1708.000000, 82.102417
1709.000000, 82.735947
1710.000000, 83.448921
1711.000000, 83.882019
1712.000000, 84.729095
1713.000000, 85.218521
1714.000000, 85.753906
1715.000000, 86.101059
1716.000000, 86.684433
1717.000000, 87.063179
1718.000000, 87.493401
1719.000000, 87.896744
1720.000000, 88.229385
1721.000000, 88.442741
1722.000000, 88.747307
1723.000000, 88.972893
1724.000000, 89.165634
1725.000000, 89.322556
1726.000000, 89.512840
1727.000000, 89.545410
1728.000000, 89.556297
1729.000000, 89.386269
1730.000000, 89.467827
1731.000000, 89.264595
1732.000000, 89.178024
1733.000000, 88.985512
1734.000000, 88.788490
1735.000000, 88.465576
1736.000000, 88.125092
1737.000000, 87.828430
1738.000000, 87.532867
1739.000000, 87.182167
1740.000000, 86.821915
1741.000000, 86.545822
1742.000000, 86.042480
1743.000000, 85.774902
1744.000000, 85.247871
1745.000000, 84.906898
1746.000000, 84.499794
1747.000000, 84.058746
1748.000000, 83.472076
1749.000000, 83.110123
1750.000000, 82.550255
1751.000000, 82.079277
1752.000000, 81.580315
1753.000000, 81.115616
1754.000000, 80.562416
1755.000000, 80.094231
1756.000000, 79.680603
1757.000000, 79.241592
1758.000000, 78.681549
1759.000000, 78.186584
1760.000000, 77.712021
1761.000000, 77.287201
1762.000000, 76.887199
1763.000000, 76.397415
1764.000000, 75.930840
1765.000000, 75.647881
1766.000000, 75.263329
1767.000000, 75.001709
1768.000000, 74.618652
1769.000000, 74.366531
1770.000000, 74.078812
1771.000000, 73.909683
1772.000000, 73.530365
1773.000000, 73.361321
1774.000000, 73.216026
1775.000000, 73.078735
1776.000000, 72.946510
1777.000000, 72.774460
1778.000000, 72.700790
1779.000000, 72.619560
1780.000000, 72.630295
1781.000000, 72.579643
1782.000000, 72.494522
1783.000000, 72.540573
1784.000000, 72.581444
1785.000000, 72.564438
1786.000000, 72.696457
1787.000000, 72.653648
1788.000000, 72.729622
1789.000000, 72.978424
1790.000000, 73.045311
1791.000000, 73.138268
1792.000000, 73.332649
1793.000000, 73.503281
1794.000000, 73.818619
1795.000000, 74.001350
1796.000000, 74.221291
1797.000000, 74.384277
1798.000000, 74.655556
1799.000000, 74.998917
1800.000000, 75.296089
1801.000000, 75.670021
1802.000000, 75.846603
1803.000000, 76.290817
1804.000000, 76.630821
1805.000000, 76.968643
1806.000000, 77.381706
1807.000000, 77.837029
1808.000000, 78.232491
1809.000000, 78.622421
1810.000000, 79.097305
1811.000000, 79.367638
1812.000000, 79.790779
1813.000000, 80.240646
1814.000000, 80.808517
1815.000000, 81.131912
1816.000000, 81.654152
1817.000000, 81.993134
1818.000000, 82.490791
1819.000000, 82.948212
1820.000000, 83.340179
1821.000000, 83.869659
1822.000000, 84.347664
1823.000000, 84.638023
1824.000000, 85.138763
1825.000000, 85.458084
1826.000000, 86.019089
1827.000000, 86.349670
1828.000000, 86.689720
1829.000000, 87.134171
1830.000000, 87.543755
1831.000000, 87.909691
1832.000000, 88.135040
1833.000000, 88.404137
1834.000000, 88.786972
1835.000000, 89.033485
1836.000000, 89.363792
1837.000000, 89.531281
1838.000000, 89.792816
1839.000000, 89.984360
1840.000000, 90.190804
1841.000000, 90.469475
1842.000000, 90.432945
1843.000000, 90.507835
1844.000000, 90.525314
1845.000000, 90.474625
1846.000000, 90.565605
1847.000000, 90.651398
1848.000000, 90.657356
1849.000000, 90.531097
1850.000000, 90.345055
1851.000000, 90.258209
1852.000000, 90.104828
1853.000000, 90.072182
1854.000000, 89.925636
1855.000000, 89.700211
1856.000000, 89.519997
1857.000000, 89.200661
1858.000000, 88.847816
1859.000000, 88.761124
1860.000000, 88.516823
1861.000000, 88.166771
1862.000000, 87.660408
1863.000000, 87.445961
1864.000000, 87.057785
1865.000000, 86.819153
1866.000000, 86.363594
1867.000000, 86.050346
1868.000000, 85.655632
1869.000000, 85.373459
1870.000000, 84.885338
1871.000000, 84.363518
1872.000000, 84.229866
1873.000000, 83.688705
1874.000000, 83.246597
1875.000000, 82.887741
1876.000000, 82.541840
1877.000000, 82.094864
1878.000000, 81.713745
1879.000000, 81.361137
1880.000000, 80.976883
1881.000000, 80.759911
1882.000000, 80.365387
1883.000000, 79.897057
1884.000000, 79.582024
1885.000000, 79.215149
1886.000000, 78.856277
1887.000000, 78.583855
1888.000000, 78.245544
1889.000000, 77.940437
1890.000000, 77.483879
1891.000000, 77.422386
1892.000000, 77.034729
1893.000000, 76.863930
1894.000000, 76.556877
1895.000000, 76.379593
1896.000000, 76.116211
1897.000000, 75.937988
1898.000000, 75.647369
1899.000000, 75.411346
1900.000000, 75.224098
1901.000000, 75.103127
1902.000000, 74.919693
1903.000000, 74.811020
1904.000000, 74.735817
1905.000000, 74.451515
1906.000000, 74.404236
1907.000000, 74.315262
1908.000000, 74.359703
1909.000000, 74.319588
1910.000000, 74.138054
1911.000000, 74.216095
1912.000000, 74.139091
1913.000000, 74.246338
1914.000000, 74.080536
1915.000000, 74.232780
1916.000000, 74.227592
1917.000000, 74.240753
1918.000000, 74.246414
1919.000000, 74.413658
1920.000000, 74.454323
1921.000000, 74.556610
1922.000000, 74.638000
1923.000000, 74.808060
1924.000000, 74.851196
1925.000000, 75.033615
1926.000000, 75.142067
1927.000000, 75.368744
1928.000000, 75.440170
1929.000000, 75.773964
1930.000000, 75.984573
1931.000000, 76.216026
1932.000000, 76.357124
1933.000000, 76.577171
1934.000000, 76.805405
1935.000000, 77.154678
1936.000000, 77.355583
1937.000000, 77.644638
1938.000000, 77.850220
1939.000000, 78.255669
1940.000000, 78.458145
1941.000000, 78.791397
1942.000000, 79.113113
1943.000000, 79.335129
1944.000000, 79.655312
1945.000000, 80.019981
1946.000000, 80.405991
1947.000000, 80.618217
1948.000000, 80.955765
1949.000000, 81.312386
1950.000000, 81.710358
1951.000000, 82.077583
1952.000000, 82.350494
1953.000000, 82.702583
1954.000000, 83.134094
1955.000000, 83.435181
1956.000000, 83.717697
1957.000000, 84.068336
1958.000000, 84.462265
1959.000000, 84.734825
1960.000000, 84.987305
1961.000000, 85.416031
1962.000000, 85.616402
1963.000000, 86.055672
1964.000000, 86.375107
1965.000000, 86.615959
1966.000000, 86.929642
1967.000000, 87.323418
1968.000000, 87.682793
1969.000000, 87.874260
1970.000000, 88.142288
1971.000000, 88.381584
1972.000000, 88.543198
1973.000000, 88.696373
1974.000000, 89.013237
1975.000000, 89.235336
1976.000000, 89.403984
1977.000000, 89.488647
1978.000000, 89.622505
1979.000000, 89.864258
1980.000000, 89.936523
1981.000000, 90.149109
1982.000000, 90.224480
1983.000000, 90.260170
1984.000000, 90.294670
1985.000000, 90.357910
1986.000000, 90.314224
1987.000000, 90.423714
1988.000000, 90.359612
1989.000000, 90.433884
1990.000000, 90.410736
1991.000000, 90.423241
1992.000000, 90.295677
1993.000000, 90.221672
1994.000000, 90.074867
1995.000000, 90.020508
1996.000000, 89.870247
1997.000000, 89.728462
1998.000000, 89.599937
1999.000000, 89.419609
2000.000000, 89.273018
2001.000000, 89.131371
2002.000000, 88.823875
2003.000000, 88.834915
2004.000000, 88.537941
2005.000000, 88.255760
2006.000000, 87.999687
2007.000000, 87.861702
2008.000000, 87.674438
2009.000000, 87.262863
2010.000000, 87.009010
2011.000000, 86.752007
2012.000000, 86.550858
2013.000000, 86.156197
2014.000000, 85.869400
2015.000000, 85.611153
2016.000000, 85.288170
2017.000000, 85.082619
2018.000000, 84.669701
2019.000000, 84.413406
2020.000000, 84.147034
2021.000000, 83.853241
2022.000000, 83.594261
2023.000000, 83.217178
2024.000000, 82.954697
2025.000000, 82.568108
2026.000000, 82.324699
2027.000000, 82.071518
2028.000000, 81.758759
2029.000000, 81.571754
2030.000000, 81.208969
2031.000000, 80.904762
2032.000000, 80.642517
2033.000000, 80.452332
2034.000000, 80.110733
2035.000000, 79.857124
2036.000000, 79.617485
2037.000000, 79.403831
2038.000000, 79.035500
2039.000000, 78.929008
2040.000000, 78.617371
2041.000000, 78.386360
2042.000000, 78.151855
2043.000000, 77.959816
2044.000000, 77.786049
2045.000000, 77.664604
2046.000000, 77.357300
2047.000000, 77.220032
2048.000000, 77.040031
2049.000000, 76.885361
2050.000000, 76.662895
2051.000000, 76.515594
2052.000000, 76.408752
2053.000000, 76.347885
2054.000000, 76.124451
2055.000000, 76.066032
2056.000000, 75.893044
2057.000000, 75.741302
2058.000000, 75.689110
2059.000000, 75.689095
2060.000000, 75.554146
2061.000000, 75.464706
2062.000000, 75.304619
2063.000000, 75.250610
2064.000000, 75.250275
2065.000000, 75.214157
2066.000000, 75.175583
2067.000000, 75.100754
2068.000000, 75.044998
2069.000000, 75.055473
2070.000000, 75.042748
2071.000000, 75.034401
2072.000000, 75.050919
2073.000000, 75.041168
2074.000000, 75.019302
2075.000000, 75.108833
2076.000000, 75.179527
2077.000000, 75.073280
2078.000000, 75.188110
2079.000000, 75.187035
2080.000000, 75.247284
2081.000000, 75.378868
2082.000000, 75.462982
2083.000000, 75.550575
2084.000000, 75.624405
2085.000000, 75.713799
2086.000000, 75.829071
2087.000000, 75.900269
2088.000000, 76.101921
2089.000000, 76.215240
2090.000000, 76.393623
2091.000000, 76.517601
2092.000000, 76.616325
2093.000000, 76.908646
2094.000000, 76.963219
2095.000000, 77.112335
2096.000000, 77.323685
2097.000000, 77.628288
2098.000000, 77.704773
2099.000000, 77.870537
2100.000000, 78.199097
2101.000000, 78.322723
2102.000000, 78.563103
2103.000000, 78.675308
2104.000000, 78.949585
2105.000000, 79.168716
2106.000000, 79.361839
2107.000000, 79.563606
2108.000000, 79.780632
2109.000000, 80.002747
2110.000000, 80.198212
2111.000000, 80.280632
2112.000000, 80.555283
2113.000000, 80.749336
2114.000000, 81.070114
2115.000000, 81.172775
2116.000000, 81.449829
2117.000000, 81.630714
2118.000000, 81.873962
2119.000000, 81.932709
2120.000000, 82.132599
2121.000000, 82.321533
2122.000000, 82.462952
2123.000000, 82.633789
2124.000000, 82.728195
2125.000000, 82.974892
2126.000000, 83.025917
2127.000000, 83.111572
2128.000000, 83.116570
2129.000000, 83.244560
2130.000000, 83.116707
2131.000000, 83.092865
2132.000000, 83.149498
2133.000000, 83.022049
2134.000000, 83.103409
2135.000000, 83.158409
2136.000000, 83.221535
2137.000000, 83.428780
2138.000000, 83.567505
2139.000000, 83.860161
2140.000000, 84.075142
2141.000000, 84.402588
2142.000000, 84.583664
2143.000000, 84.833725
2144.000000, 85.063599
2145.000000, 85.249451
2146.000000, 85.479813
2147.000000, 85.496918
2148.000000, 85.540848
2149.000000, 85.656776
2150.000000, 85.489647
2151.000000, 85.548035
2152.000000, 85.425911
2153.000000, 85.285568
2154.000000, 85.132927
2155.000000, 84.961357
2156.000000, 84.712875
2157.000000, 84.551002
2158.000000, 84.263962
2159.000000, 84.111641
2160.000000, 83.728821
2161.000000, 83.567101
2162.000000, 83.403763
2163.000000, 83.261513
2164.000000, 83.320518
2165.000000, 83.322083
2166.000000, 83.495728
2167.000000, 83.791054
2168.000000, 83.935860
2169.000000, 84.138229
2170.000000, 84.222450
2171.000000, 84.466408
2172.000000, 84.548340
2173.000000, 84.731964
2174.000000, 84.682693
2175.000000, 84.678535
2176.000000, 84.574448
2177.000000, 84.595016
2178.000000, 84.441498
2179.000000, 84.377403
2180.000000, 84.149155
2181.000000, 83.968285
2182.000000, 83.871735
2183.000000, 83.612801
2184.000000, 83.414803
2185.000000, 83.302269
2186.000000, 83.146271
2187.000000, 82.811005
2188.000000, 82.502403
2189.000000, 82.416367
2190.000000, 82.145355
2191.000000, 81.892410
2192.000000, 81.752068
2193.000000, 81.571045
2194.000000, 81.542679
2195.000000, 81.354561
2196.000000, 81.132973
2197.000000, 81.014961
2198.000000, 80.923286
2199.000000, 80.701866
2200.000000, 80.540123
2201.000000, 80.356384
2202.000000, 80.158981
2203.000000, 79.991730
2204.000000, 79.744514
2205.000000, 79.620735
2206.000000, 79.441910
2207.000000, 79.335991
2208.000000, 79.035637
2209.000000, 78.922874
2210.000000, 78.768944
2211.000000, 78.725777
2212.000000, 78.533752
2213.000000, 78.501152
2214.000000, 78.325684
2215.000000, 78.195396
2216.000000, 78.192398
2217.000000, 78.078255
2218.000000, 78.006538
2219.000000, 77.857948
2220.000000, 77.716187
2221.000000, 77.663567
2222.000000, 77.538010
2223.000000, 77.377609
2224.000000, 77.218971
2225.000000, 77.077438
2226.000000, 76.937988
2227.000000, 76.770287
2228.000000, 76.684700
2229.000000, 76.551750
2230.000000, 76.368660
2231.000000, 76.258919
2232.000000, 76.163422
2233.000000, 75.958550
2234.000000, 75.961502
2235.000000, 75.909714
2236.000000, 75.855209
2237.000000, 75.706696
2238.000000, 75.620636
2239.000000, 75.535606
2240.000000, 75.548134
2241.000000, 75.487289
2242.000000, 75.369873
2243.000000, 75.217285
2244.000000, 75.074837
2245.000000, 75.021370
2246.000000, 74.942963
2247.000000, 74.690697
2248.000000, 74.639091
2249.000000, 74.493439
2250.000000, 74.261917
2251.000000, 74.206116
2252.000000, 73.976532
2253.000000, 73.881371
2254.000000, 73.581917
2255.000000, 73.467247
2256.000000, 73.302635
2257.000000, 73.092857
2258.000000, 72.872108
2259.000000, 72.586174
2260.000000, 72.430367
2261.000000, 72.199989
2262.000000, 71.957298
2263.000000, 71.763062
2264.000000, 71.503029
2265.000000, 71.328125
2266.000000, 71.012527
2267.000000, 70.769318
2268.000000, 70.486740
2269.000000, 70.346970
2270.000000, 70.192024
2271.000000, 70.051651
2272.000000, 69.803329
2273.000000, 69.674538
2274.000000, 69.778603
2275.000000, 69.657539
2276.000000, 69.744484
2277.000000, 69.837097
2278.000000, 69.936081
2279.000000, 69.855171
2280.000000, 69.969025
2281.000000, 70.063217
2282.000000, 70.099152
2283.000000, 70.130463
2284.000000, 70.156967
2285.000000, 70.170784
2286.000000, 70.162064
2287.000000, 70.129402
2288.000000, 70.117767
2289.000000, 70.188019
2290.000000, 70.155701
2291.000000, 70.202263
2292.000000, 70.247063
2293.000000, 70.286285
2294.000000, 70.263008
2295.000000, 70.301849
2296.000000, 70.263260
2297.000000, 70.222763
2298.000000, 70.329712
2299.000000, 70.267334
2300.000000, 70.288300
2301.000000, 70.355774
2302.000000, 70.415649
2303.000000, 70.362175
2304.000000, 70.549362
2305.000000, 70.583076
2306.000000, 70.577965
2307.000000, 70.649063
2308.000000, 70.671135
2309.000000, 70.649574
2310.000000, 70.524971
2311.000000, 70.550484
2312.000000, 70.571373
2313.000000, 70.664528
2314.000000, 70.622421
2315.000000, 70.778206
2316.000000, 70.903702
2317.000000, 71.179169
2318.000000, 71.487450
2319.000000, 71.864220
2320.000000, 72.155930
2321.000000, 72.631683
2322.000000, 73.037285
2323.000000, 73.351288
2324.000000, 73.740028
2325.000000, 74.077095
2326.000000, 74.318993
2327.000000, 74.683006
2328.000000, 74.966927
2329.000000, 75.119110
2330.000000, 75.407188
2331.000000, 75.622902
2332.000000, 75.804398
2333.000000, 76.014694
2334.000000, 76.275505
2335.000000, 76.428970
2336.000000, 76.625427
2337.000000, 76.724632
2338.000000, 76.830719
2339.000000, 76.855385
2340.000000, 77.025360
2341.000000, 77.064011
2342.000000, 77.004509
2343.000000, 77.138039
2344.000000, 77.106491
2345.000000, 77.117966
2346.000000, 77.140427
2347.000000, 77.145546
2348.000000, 77.139809
2349.000000, 77.169044
2350.000000, 77.082878
2351.000000, 77.058418
2352.000000, 77.132309
2353.000000, 77.219437
2354.000000, 77.124176
2355.000000, 77.179192
2356.000000, 77.173805
2357.000000, 77.185257
2358.000000, 77.111511
2359.000000, 77.083847
2360.000000, 77.057701
2361.000000, 77.009277
2362.000000, 76.865036
2363.000000, 76.740982
2364.000000, 76.796234
2365.000000, 76.725693
2366.000000, 76.687210
2367.000000, 76.581444
2368.000000, 76.590767
2369.000000, 76.568138
2370.000000, 76.449135
2371.000000, 76.511612
2372.000000, 76.379898
2373.000000, 76.450943
2374.000000, 76.288658
2375.000000, 76.289734
2376.000000, 76.320206
2377.000000, 76.218513
2378.000000, 76.086952
2379.000000, 76.089516
2380.000000, 75.992195
2381.000000, 75.876373
2382.000000, 75.706696
2383.000000, 75.567314
2384.000000, 75.442314
2385.000000, 75.274437
2386.000000, 75.132637
2387.000000, 74.997566
2388.000000, 74.850693
2389.000000, 74.733788
2390.000000, 74.562241
2391.000000, 74.423912
2392.000000, 74.257545
2393.000000, 74.071976
2394.000000, 73.937042
2395.000000, 73.751381
2396.000000, 73.578194
2397.000000, 73.497826
2398.000000, 73.278244
2399.000000, 73.134026
2400.000000, 73.060516
2401.000000, 73.022911
2402.000000, 72.722336
2403.000000, 72.765663
2404.000000, 72.669769
2405.000000, 72.666817
2406.000000, 72.795761
2407.000000, 72.855034
2408.000000, 72.824097
2409.000000, 72.920265
2410.000000, 72.905441
2411.000000, 72.917084
2412.000000, 72.917061
2413.000000, 72.978470
2414.000000, 72.888145
2415.000000, 72.955078
2416.000000, 72.982941
2417.000000, 72.946045
2418.000000, 72.926002
2419.000000, 72.920197
2420.000000, 72.843864
2421.000000, 72.807335
2422.000000, 72.849258
2423.000000, 72.643364
2424.000000, 72.634476
2425.000000, 72.599487
2426.000000, 72.574135
2427.000000, 72.391640
2428.000000, 72.317207
2429.000000, 72.266380
2430.000000, 72.093170
2431.000000, 72.092018
2432.000000, 71.961227
2433.000000, 71.809044
2434.000000, 71.743187
2435.000000, 71.505852
2436.000000, 71.340332
2437.000000, 71.244141
2438.000000, 71.076431
2439.000000, 70.816727
2440.000000, 70.582268
2441.000000, 70.434860
2442.000000, 70.129921
2443.000000, 69.746292
2444.000000, 69.504883
2445.000000, 69.109879
2446.000000, 68.804321
2447.000000, 68.457268
2448.000000, 68.176926
2449.000000, 67.844757
2450.000000, 67.584892
2451.000000, 67.274101
2452.000000, 66.962547
2453.000000, 66.733231
2454.000000, 66.371170
2455.000000, 66.150612
2456.000000, 65.826408
2457.000000, 65.623550
2458.000000, 65.264816
2459.000000, 65.092934
2460.000000, 65.076515
2461.000000, 64.925720
2462.000000, 65.029739
2463.000000, 65.215385
2464.000000, 65.267899
2465.000000, 65.460258
2466.000000, 65.784775
2467.000000, 66.052635
2468.000000, 66.384491
2469.000000, 66.868401
2470.000000, 67.106110
2471.000000, 67.456367
2472.000000, 67.706383
2473.000000, 68.107254
2474.000000, 68.389984
2475.000000, 68.770172
2476.000000, 69.061066
2477.000000, 69.261139
2478.000000, 69.396507
2479.000000, 69.691544
2480.000000, 69.825851
2481.000000, 69.952965
2482.000000, 70.104454
2483.000000, 70.197365
2484.000000, 70.109978
2485.000000, 70.288673
2486.000000, 70.257034
2487.000000, 70.262817
2488.000000, 70.337639
2489.000000, 70.381386
2490.000000, 70.379158
2491.000000, 70.411461
2492.000000, 70.503540
2493.000000, 70.516747
2494.000000, 70.502052
2495.000000, 70.571213
2496.000000, 70.682343
2497.000000, 70.661247
2498.000000, 70.589188
2499.000000, 70.691132
2500.000000, 70.647972
2501.000000, 70.509819
2502.000000, 70.743355
2503.000000, 70.573929
2504.000000, 70.598724
2505.000000, 70.605400
2506.000000, 70.612366
2507.000000, 70.616493
2508.000000, 70.679688
2509.000000, 70.752243
2510.000000, 70.759270
2511.000000, 70.695961
2512.000000, 70.806190
2513.000000, 70.939842
2514.000000, 70.993027
2515.000000, 71.136574
2516.000000, 71.309990
2517.000000, 71.348602
2518.000000, 71.615387
2519.000000, 71.883682
2520.000000, 71.931358
2521.000000, 71.967056
2522.000000, 72.246399
2523.000000, 72.509468
2524.000000, 72.666458
2525.000000, 72.747734
2526.000000, 72.915558
2527.000000, 73.152733
2528.000000, 73.306381
2529.000000, 73.443954
2530.000000, 73.639503
2531.000000, 73.807785
2532.000000, 74.113388
2533.000000, 74.156845
2534.000000, 74.293747
2535.000000, 74.429985
2536.000000, 74.700409
2537.000000, 74.698036
2538.000000, 74.788025
2539.000000, 74.943558
2540.000000, 74.932526
2541.000000, 75.104729
2542.000000, 75.102486
2543.000000, 75.190887
2544.000000, 75.138184
2545.000000, 75.311745
2546.000000, 75.442657
2547.000000, 75.324944
2548.000000, 75.368774
2549.000000, 75.425278
2550.000000, 75.557449
2551.000000, 75.502815
2552.000000, 75.377678
2553.000000, 75.568184
2554.000000, 75.545486
2555.000000, 75.571373
2556.000000, 75.612656
2557.000000, 75.738693
2558.000000, 75.668137
2559.000000, 75.703873
2560.000000, 75.821823
2561.000000, 75.772957
2562.000000, 75.901749
2563.000000, 75.962700
2564.000000, 76.037384
2565.000000, 75.925560
2566.000000, 76.156914
2567.000000, 76.227455
2568.000000, 76.199997
2569.000000, 76.309761
2570.000000, 76.308411
2571.000000, 76.300148
2572.000000, 76.386887
2573.000000, 76.413361
2574.000000, 76.525566
2575.000000, 76.404564
2576.000000, 76.517273
2577.000000, 76.455017
2578.000000, 76.490082
2579.000000, 76.520035
2580.000000, 76.540787
2581.000000, 76.731911
2582.000000, 76.668587
2583.000000, 76.827179
2584.000000, 76.969994
2585.000000, 77.095238
2586.000000, 77.198418
2587.000000, 77.319023
2588.000000, 77.431618
2589.000000, 77.536827
2590.000000, 77.663605
2591.000000, 77.715614
2592.000000, 77.723129
2593.000000, 77.830086
2594.000000, 78.021988
2595.000000, 77.989326
2596.000000, 78.159126
2597.000000, 78.182343
2598.000000, 78.288223
2599.000000, 78.236870
2600.000000, 78.230942
