# Wavelength  (nm), Transmission (%)
200.000000, 0.007005
201.000000, 0.006884
202.000000, 0.006649
203.000000, 0.006526
204.000000, 0.006292
205.000000, 0.006130
206.000000, 0.005995
207.000000, 0.005781
208.000000, 0.005666
209.000000, 0.005427
210.000000, 0.005318
211.000000, 0.005198
212.000000, 0.005006
213.000000, 0.004907
214.000000, 0.004798
215.000000, 0.004721
216.000000, 0.004627
217.000000, 0.004525
218.000000, 0.004471
219.000000, 0.004415
220.000000, 0.004395
221.000000, 0.004380
222.000000, 0.004335
223.000000, 0.004354
224.000000, 0.004346
225.000000, 0.004319
226.000000, 0.004354
227.000000, 0.004338
228.000000, 0.004321
229.000000, 0.004316
230.000000, 0.004335
231.000000, 0.004278
232.000000, 0.004296
233.000000, 0.004304
234.000000, 0.004242
235.000000, 0.004226
236.000000, 0.004181
237.000000, 0.004163
238.000000, 0.004141
239.000000, 0.004106
240.000000, 0.004065
241.000000, 0.004064
242.000000, 0.003982
243.000000, 0.004012
244.000000, 0.003939
245.000000, 0.003977
246.000000, 0.003992
247.000000, 0.003924
248.000000, 0.003875
249.000000, 0.003857
250.000000, 0.003873
251.000000, 0.003841
252.000000, 0.003785
253.000000, 0.003778
254.000000, 0.003784
255.000000, 0.003745
256.000000, 0.003742
257.000000, 0.003684
258.000000, 0.003703
259.000000, 0.003659
260.000000, 0.003627
261.000000, 0.003597
262.000000, 0.003542
263.000000, 0.003499
264.000000, 0.003488
265.000000, 0.003447
266.000000, 0.003446
267.000000, 0.003380
268.000000, 0.003348
269.000000, 0.003328
270.000000, 0.003341
271.000000, 0.003254
272.000000, 0.003212
273.000000, 0.003205
274.000000, 0.003175
275.000000, 0.003147
276.000000, 0.003124
277.000000, 0.003044
278.000000, 0.003066
279.000000, 0.003026
280.000000, 0.002967
281.000000, 0.002930
282.000000, 0.002914
283.000000, 0.002855
284.000000, 0.002801
285.000000, 0.002758
286.000000, 0.002733
287.000000, 0.002633
288.000000, 0.002604
289.000000, 0.002539
290.000000, 0.002453
291.000000, 0.002390
292.000000, 0.002302
293.000000, 0.002221
294.000000, 0.002164
295.000000, 0.002022
296.000000, 0.001953
297.000000, 0.001853
298.000000, 0.001738
299.000000, 0.001700
300.000000, 0.001572
301.000000, 0.001491
302.000000, 0.001398
303.000000, 0.001309
304.000000, 0.001270
305.000000, 0.001181
306.000000, 0.001088
307.000000, 0.001008
308.000000, 0.000918
309.000000, 0.000858
310.000000, 0.000812
311.000000, 0.000743
312.000000, 0.000681
313.000000, 0.000629
314.000000, 0.000561
315.000000, 0.000535
316.000000, 0.000453
317.000000, 0.000457
318.000000, 0.000417
319.000000, 0.000355
320.000000, 0.000355
321.000000, 0.000322
322.000000, 0.000303
323.000000, 0.000260
324.000000, 0.000243
325.000000, 0.000269
326.000000, 0.000207
327.000000, 0.000222
328.000000, 0.000195
329.000000, 0.000199
330.000000, 0.000161
331.000000, 0.000180
332.000000, 0.000152
333.000000, 0.000161
334.000000, 0.000137
335.000000, 0.000132
336.000000, 0.000141
337.000000, 0.000131
338.000000, 0.000132
339.000000, 0.000138
340.000000, 0.000113
341.000000, 0.000115
342.000000, 0.000116
343.000000, 0.000120
344.000000, 0.000141
345.000000, 0.000116
346.000000, 0.000142
347.000000, 0.000108
348.000000, 0.000166
349.000000, 0.000053
350.000000, 0.000271
351.000000, 0.000382
352.000000, 0.000566
353.000000, 0.000887
354.000000, 0.001477
355.000000, 0.002372
356.000000, 0.003942
357.000000, 0.006388
358.000000, 0.010339
359.000000, 0.016732
360.000000, 0.026843
361.000000, 0.042346
362.000000, 0.065182
363.000000, 0.099386
364.000000, 0.149038
365.000000, 0.219256
366.000000, 0.316486
367.000000, 0.449461
368.000000, 0.627126
369.000000, 0.859391
370.000000, 1.149776
371.000000, 1.516556
372.000000, 1.953392
373.000000, 2.457606
374.000000, 3.011072
375.000000, 3.618940
376.000000, 4.342615
377.000000, 5.185594
378.000000, 6.042494
379.000000, 6.849943
380.000000, 7.773981
381.000000, 9.118053
382.000000, 10.721139
383.000000, 11.890846
384.000000, 11.709080
385.000000, 9.561859
386.000000, 6.167496
387.000000, 3.151639
388.000000, 1.487029
389.000000, 0.795445
390.000000, 0.523015
391.000000, 0.418244
392.000000, 0.380573
393.000000, 0.351206
394.000000, 0.291277
395.000000, 0.201210
396.000000, 0.115136
397.000000, 0.060614
398.000000, 0.033012
399.000000, 0.019594
400.000000, 0.012629
401.000000, 0.008905
402.000000, 0.006857
403.000000, 0.005769
404.000000, 0.005227
405.000000, 0.005200
406.000000, 0.005527
407.000000, 0.006495
408.000000, 0.008208
409.000000, 0.011379
410.000000, 0.017602
411.000000, 0.030225
412.000000, 0.058443
413.000000, 0.127716
414.000000, 0.291419
415.000000, 0.599723
416.000000, 1.028943
417.000000, 1.502753
418.000000, 2.157762
419.000000, 3.687125
420.000000, 8.391906
421.000000, 20.114561
422.000000, 33.268421
423.000000, 35.610886
424.000000, 28.715246
425.000000, 24.689821
426.000000, 28.856464
427.000000, 39.149082
428.000000, 48.354973
429.000000, 48.523174
430.000000, 40.719536
431.000000, 33.166817
432.000000, 30.437719
433.000000, 32.699448
434.000000, 39.462364
435.000000, 48.980652
436.000000, 57.038658
437.000000, 59.849148
438.000000, 57.579380
439.000000, 54.279900
440.000000, 53.469975
441.000000, 56.365376
442.000000, 62.387878
443.000000, 69.360855
444.000000, 74.701782
445.000000, 76.261627
446.000000, 74.386955
447.000000, 71.341415
448.000000, 69.430954
449.000000, 69.649513
450.000000, 71.959908
451.000000, 75.413322
452.000000, 78.831940
453.000000, 80.912971
454.000000, 81.247826
455.000000, 80.112755
456.000000, 78.416939
457.000000, 77.150230
458.000000, 76.763123
459.000000, 77.397087
460.000000, 78.720161
461.000000, 80.182747
462.000000, 81.264839
463.000000, 81.568565
464.000000, 81.217873
465.000000, 80.407341
466.000000, 79.651131
467.000000, 79.257530
468.000000, 79.548981
469.000000, 80.497276
470.000000, 81.771675
471.000000, 83.023949
472.000000, 83.855270
473.000000, 83.929794
474.000000, 83.302597
475.000000, 82.290451
476.000000, 81.281319
477.000000, 80.596542
478.000000, 80.608093
479.000000, 81.201019
480.000000, 82.249062
481.000000, 83.538589
482.000000, 84.685020
483.000000, 85.312103
484.000000, 85.422913
485.000000, 85.066994
486.000000, 84.511009
487.000000, 84.047775
488.000000, 83.840538
489.000000, 84.085396
490.000000, 84.581200
491.000000, 85.243332
492.000000, 85.795349
493.000000, 85.978851
494.000000, 85.821091
495.000000, 85.418709
496.000000, 84.779449
497.000000, 84.198952
498.000000, 83.885361
499.000000, 83.970680
500.000000, 84.307266
501.000000, 84.889954
502.000000, 85.527794
503.000000, 85.984352
504.000000, 86.195786
505.000000, 86.098175
506.000000, 85.785545
507.000000, 85.347717
508.000000, 84.961166
509.000000, 84.796600
510.000000, 84.866974
511.000000, 85.125237
512.000000, 85.547546
513.000000, 85.970688
514.000000, 86.198219
515.000000, 86.240051
516.000000, 86.000511
517.000000, 85.537117
518.000000, 85.033569
519.000000, 84.592041
520.000000, 84.321335
521.000000, 84.260094
522.000000, 84.457443
523.000000, 84.812454
524.000000, 85.282578
525.000000, 85.692329
526.000000, 85.991928
527.000000, 86.069206
528.000000, 85.966179
529.000000, 85.777756
530.000000, 85.507294
531.000000, 85.286484
532.000000, 85.205315
533.000000, 85.189369
534.000000, 85.372444
535.000000, 85.604729
536.000000, 85.845940
537.000000, 86.086777
538.000000, 86.171249
539.000000, 86.172523
540.000000, 86.081818
541.000000, 85.914536
542.000000, 85.702019
543.000000, 85.567513
544.000000, 85.454544
545.000000, 85.290703
546.000000, 85.276970
547.000000, 85.149338
548.000000, 85.006790
549.000000, 84.809258
550.000000, 84.557137
551.000000, 84.231636
552.000000, 83.985344
553.000000, 83.793480
554.000000, 83.758186
555.000000, 83.894577
556.000000, 84.171417
557.000000, 84.573891
558.000000, 85.020554
559.000000, 85.403786
560.000000, 85.660263
561.000000, 85.642868
562.000000, 85.433952
563.000000, 84.998558
564.000000, 84.431244
565.000000, 83.791008
566.000000, 83.247139
567.000000, 82.873016
568.000000, 82.778000
569.000000, 82.899971
570.000000, 83.222244
571.000000, 83.741203
572.000000, 84.291214
573.000000, 84.781593
574.000000, 85.029381
575.000000, 84.992447
576.000000, 84.640083
577.000000, 84.083527
578.000000, 83.277298
579.000000, 82.478142
580.000000, 81.742165
581.000000, 81.241920
582.000000, 80.999298
583.000000, 81.116753
584.000000, 81.455307
585.000000, 82.020248
586.000000, 82.649155
587.000000, 83.270699
588.000000, 83.732590
589.000000, 83.981750
590.000000, 83.937180
591.000000, 83.698654
592.000000, 83.191010
593.000000, 82.570656
594.000000, 82.004868
595.000000, 81.451973
596.000000, 81.035942
597.000000, 80.763016
598.000000, 80.679993
599.000000, 80.692116
600.000000, 80.768135
601.000000, 80.847816
602.000000, 80.969742
603.000000, 81.043716
604.000000, 81.107269
605.000000, 81.232620
606.000000, 81.374184
607.000000, 81.579391
608.000000, 81.821815
609.000000, 82.099823
610.000000, 82.302475
611.000000, 82.393654
612.000000, 82.254219
613.000000, 81.830597
614.000000, 81.171448
615.000000, 80.284035
616.000000, 79.320091
617.000000, 78.435463
618.000000, 77.782417
619.000000, 77.446518
620.000000, 77.479645
621.000000, 77.908104
622.000000, 78.644669
623.000000, 79.439400
624.000000, 80.118355
625.000000, 80.416702
626.000000, 80.156151
627.000000, 79.329285
628.000000, 78.102364
629.000000, 76.661263
630.000000, 75.277733
631.000000, 74.342026
632.000000, 73.937675
633.000000, 74.115273
634.000000, 74.803284
635.000000, 75.776291
636.000000, 76.668808
637.000000, 77.241440
638.000000, 77.377396
639.000000, 77.149384
640.000000, 76.723434
641.000000, 76.324539
642.000000, 75.763588
643.000000, 74.582230
644.000000, 72.289543
645.000000, 68.962326
646.000000, 65.903687
647.000000, 65.049301
648.000000, 66.202965
649.000000, 61.964088
650.000000, 44.901009
651.000000, 22.851322
652.000000, 6.667863
653.000000, 2.635925
654.000000, 0.921180
655.000000, 0.367269
656.000000, 0.160304
657.000000, 0.076086
658.000000, 0.038713
659.000000, 0.020532
660.000000, 0.011614
661.000000, 0.006820
662.000000, 0.004215
663.000000, 0.002702
664.000000, 0.001776
665.000000, 0.001211
666.000000, 0.000858
667.000000, 0.000625
668.000000, 0.000480
669.000000, 0.000375
670.000000, 0.000302
671.000000, 0.000249
672.000000, 0.000205
673.000000, 0.000184
674.000000, 0.000149
675.000000, 0.000132
676.000000, 0.000113
677.000000, 0.000104
678.000000, 0.000086
679.000000, 0.000083
680.000000, 0.000090
681.000000, 0.000066
682.000000, 0.000061
683.000000, 0.000070
684.000000, 0.000057
685.000000, 0.000056
686.000000, 0.000062
687.000000, 0.000040
688.000000, 0.000042
689.000000, 0.000041
690.000000, 0.000050
691.000000, 0.000037
692.000000, 0.000034
693.000000, 0.000045
694.000000, 0.000036
695.000000, 0.000029
696.000000, 0.000041
697.000000, 0.000025
698.000000, 0.000031
699.000000, 0.000028
700.000000, 0.000039
701.000000, 0.000025
702.000000, 0.000030
703.000000, 0.000030
704.000000, 0.000023
705.000000, 0.000019
706.000000, 0.000024
707.000000, 0.000036
708.000000, 0.000020
709.000000, 0.000018
710.000000, 0.000019
711.000000, 0.000033
712.000000, 0.000023
713.000000, 0.000020
714.000000, 0.000023
715.000000, 0.000024
716.000000, 0.000023
717.000000, 0.000025
718.000000, 0.000029
719.000000, 0.000022
720.000000, 0.000019
721.000000, 0.000023
722.000000, 0.000029
723.000000, 0.000029
724.000000, 0.000027
725.000000, 0.000022
726.000000, 0.000025
727.000000, 0.000029
728.000000, 0.000016
729.000000, 0.000023
730.000000, 0.000022
731.000000, 0.000021
732.000000, 0.000031
733.000000, 0.000019
734.000000, 0.000022
735.000000, 0.000023
736.000000, 0.000034
737.000000, 0.000022
738.000000, 0.000026
739.000000, 0.000020
740.000000, 0.000032
741.000000, 0.000017
742.000000, 0.000022
743.000000, 0.000022
744.000000, 0.000024
745.000000, 0.000033
746.000000, 0.000018
747.000000, 0.000024
748.000000, 0.000022
749.000000, 0.000022
750.000000, 0.000038
751.000000, 0.000027
752.000000, 0.000033
753.000000, 0.000021
754.000000, 0.000033
755.000000, 0.000027
756.000000, 0.000032
757.000000, 0.000025
758.000000, 0.000027
759.000000, 0.000042
760.000000, 0.000030
761.000000, 0.000024
762.000000, 0.000033
763.000000, 0.000040
764.000000, 0.000021
765.000000, 0.000031
766.000000, 0.000026
767.000000, 0.000028
768.000000, 0.000041
769.000000, 0.000027
770.000000, 0.000024
771.000000, 0.000039
772.000000, 0.000026
773.000000, 0.000046
774.000000, 0.000026
775.000000, 0.000038
776.000000, 0.000028
777.000000, 0.000035
778.000000, 0.000048
779.000000, 0.000042
780.000000, 0.000028
781.000000, 0.000024
782.000000, 0.000034
783.000000, 0.000046
784.000000, 0.000031
785.000000, 0.000029
786.000000, 0.000038
787.000000, 0.000027
788.000000, 0.000049
789.000000, 0.000025
790.000000, 0.000029
791.000000, 0.000032
792.000000, 0.000035
793.000000, 0.000043
794.000000, 0.000028
795.000000, 0.000026
796.000000, 0.000035
797.000000, 0.000032
798.000000, 0.000053
799.000000, 0.000026
800.000000, -0.000261
801.000000, -0.000134
802.000000, 0.000207
803.000000, 0.000267
804.000000, 0.000272
805.000000, 0.000179
806.000000, 0.000202
807.000000, 0.000237
808.000000, 0.000145
809.000000, 0.000020
810.000000, 0.000514
811.000000, 0.000088
812.000000, 0.000279
813.000000, 0.000309
814.000000, 0.000484
815.000000, 0.000367
816.000000, 0.000272
817.000000, 0.000087
818.000000, -0.000023
819.000000, 0.000193
820.000000, 0.000045
821.000000, 0.000118
822.000000, 0.000024
823.000000, -0.000004
824.000000, 0.000222
825.000000, 0.000304
826.000000, -0.000016
827.000000, 0.000139
828.000000, 0.000365
829.000000, 0.000255
830.000000, 0.000338
831.000000, 0.000105
832.000000, 0.000380
833.000000, 0.000199
834.000000, 0.000385
835.000000, 0.000343
836.000000, 0.000278
837.000000, 0.000299
838.000000, 0.000208
839.000000, 0.000481
840.000000, 0.000523
841.000000, 0.000336
842.000000, 0.000203
843.000000, 0.000219
844.000000, 0.000363
845.000000, 0.000102
846.000000, 0.000313
847.000000, 0.000206
848.000000, 0.000164
849.000000, 0.000223
850.000000, 0.000396
851.000000, 0.000195
852.000000, 0.000254
853.000000, 0.000269
854.000000, 0.000288
855.000000, 0.000227
856.000000, 0.000165
857.000000, 0.000334
858.000000, 0.000331
859.000000, 0.000179
860.000000, 0.000229
861.000000, 0.000388
862.000000, 0.000251
863.000000, 0.000299
864.000000, 0.000258
865.000000, 0.000253
866.000000, 0.000341
867.000000, 0.000310
868.000000, 0.000326
869.000000, 0.000344
870.000000, 0.000389
871.000000, 0.000398
872.000000, 0.000279
873.000000, 0.000343
874.000000, 0.000397
875.000000, 0.000440
876.000000, 0.000460
877.000000, 0.000512
878.000000, 0.000441
879.000000, 0.000537
880.000000, 0.000609
881.000000, 0.000648
882.000000, 0.000645
883.000000, 0.000624
884.000000, 0.000647
885.000000, 0.000851
886.000000, 0.000859
887.000000, 0.000890
888.000000, 0.001019
889.000000, 0.001097
890.000000, 0.001257
891.000000, 0.001331
892.000000, 0.001582
893.000000, 0.001776
894.000000, 0.002193
895.000000, 0.002735
896.000000, 0.003543
897.000000, 0.004894
898.000000, 0.007586
899.000000, 0.014806
900.000000, 0.046962
901.000000, 0.149304
902.000000, 0.319974
903.000000, 0.539650
904.000000, 0.784670
905.000000, 1.028918
906.000000, 1.297788
907.000000, 1.571299
908.000000, 1.833380
909.000000, 2.101067
910.000000, 2.377134
911.000000, 2.652920
912.000000, 2.945302
913.000000, 3.266850
914.000000, 3.761487
915.000000, 4.410886
916.000000, 5.050652
917.000000, 5.628220
918.000000, 5.903783
919.000000, 5.538498
920.000000, 5.014814
921.000000, 4.594280
922.000000, 4.316607
923.000000, 4.166747
924.000000, 4.163328
925.000000, 4.418983
926.000000, 4.564296
927.000000, 4.884734
928.000000, 5.306408
929.000000, 6.051003
930.000000, 7.226042
931.000000, 8.867071
932.000000, 11.296088
933.000000, 14.854294
934.000000, 20.380529
935.000000, 29.587830
936.000000, 41.597973
937.000000, 51.066177
938.000000, 48.963551
939.000000, 39.346066
940.000000, 29.872534
941.000000, 22.646376
942.000000, 17.421379
943.000000, 13.911444
944.000000, 11.269993
945.000000, 9.393339
946.000000, 8.273760
947.000000, 7.627538
948.000000, 7.427140
949.000000, 7.551987
950.000000, 7.961632
951.000000, 8.682818
952.000000, 9.683251
953.000000, 11.048799
954.000000, 12.929630
955.000000, 15.441307
956.000000, 18.851540
957.000000, 23.755030
958.000000, 30.526363
959.000000, 39.631054
960.000000, 51.311016
961.000000, 64.541649
962.000000, 75.029465
963.000000, 78.909897
964.000000, 73.831139
965.000000, 64.086388
966.000000, 53.117786
967.000000, 43.552513
968.000000, 36.187050
969.000000, 30.466738
970.000000, 26.171646
971.000000, 23.097736
972.000000, 20.865696
973.000000, 19.267868
974.000000, 18.189503
975.000000, 17.492428
976.000000, 17.105240
977.000000, 17.042847
978.000000, 17.242088
979.000000, 17.725954
980.000000, 18.520399
981.000000, 19.572306
982.000000, 21.002428
983.000000, 22.925800
984.000000, 25.249809
985.000000, 28.249348
986.000000, 31.805424
987.000000, 36.164589
988.000000, 41.501057
989.000000, 48.073975
990.000000, 55.263603
991.000000, 63.266014
992.000000, 71.339745
993.000000, 78.270447
994.000000, 83.317963
995.000000, 85.028214
996.000000, 83.415947
997.000000, 79.036545
998.000000, 72.945389
999.000000, 65.979546
1000.000000, 59.577770
1001.000000, 53.305920
1002.000000, 47.862900
1003.000000, 43.373123
1004.000000, 39.605457
1005.000000, 36.559200
1006.000000, 34.039932
1007.000000, 32.094501
1008.000000, 30.513018
1009.000000, 29.271158
1010.000000, 28.414637
1011.000000, 27.869118
1012.000000, 27.594810
1013.000000, 27.543493
1014.000000, 27.752447
1015.000000, 28.234837
1016.000000, 28.943268
1017.000000, 29.874680
1018.000000, 31.143040
1019.000000, 32.588799
1020.000000, 34.438931
1021.000000, 36.704895
1022.000000, 39.280685
1023.000000, 42.277676
1024.000000, 45.733398
1025.000000, 49.557869
1026.000000, 53.907288
1027.000000, 58.805023
1028.000000, 64.001114
1029.000000, 69.381355
1030.000000, 74.807373
1031.000000, 79.427773
1032.000000, 83.396805
1033.000000, 86.045021
1034.000000, 87.465302
1035.000000, 87.449249
1036.000000, 85.861031
1037.000000, 83.222588
1038.000000, 79.843887
1039.000000, 75.690933
1040.000000, 71.378517
1041.000000, 67.300301
1042.000000, 63.226421
1043.000000, 59.466000
1044.000000, 56.062363
1045.000000, 53.047096
1046.000000, 50.310360
1047.000000, 47.977642
1048.000000, 46.041481
1049.000000, 44.278072
1050.000000, 42.952911
1051.000000, 41.846172
1052.000000, 40.954666
1053.000000, 40.353264
1054.000000, 39.942345
1055.000000, 39.770817
1056.000000, 39.777023
1057.000000, 39.983810
1058.000000, 40.432556
1059.000000, 41.076572
1060.000000, 41.899170
1061.000000, 42.949940
1062.000000, 44.218655
1063.000000, 45.693207
1064.000000, 47.323219
1065.000000, 49.342400
1066.000000, 51.637894
1067.000000, 53.928722
1068.000000, 56.621063
1069.000000, 59.554874
1070.000000, 62.591274
1071.000000, 65.948578
1072.000000, 69.431046
1073.000000, 72.817810
1074.000000, 75.953697
1075.000000, 79.199287
1076.000000, 81.885490
1077.000000, 84.574959
1078.000000, 86.485481
1079.000000, 87.933853
1080.000000, 88.643089
1081.000000, 88.683685
1082.000000, 88.028778
1083.000000, 86.954071
1084.000000, 85.311577
1085.000000, 83.172989
1086.000000, 80.710785
1087.000000, 78.071823
1088.000000, 75.536034
1089.000000, 72.845772
1090.000000, 70.177788
1091.000000, 67.522583
1092.000000, 65.099625
1093.000000, 62.822712
1094.000000, 60.675915
1095.000000, 58.863853
1096.000000, 57.132996
1097.000000, 55.643112
1098.000000, 54.365627
1099.000000, 53.221535
1100.000000, 52.309902
1101.000000, 51.570629
1102.000000, 51.019878
1103.000000, 50.568748
1104.000000, 50.310783
1105.000000, 50.235580
1106.000000, 50.310558
1107.000000, 50.513809
1108.000000, 50.891598
1109.000000, 51.414932
1110.000000, 52.080738
1111.000000, 52.905399
1112.000000, 53.874634
1113.000000, 54.999672
1114.000000, 56.234093
1115.000000, 57.592213
1116.000000, 59.198051
1117.000000, 60.934048
1118.000000, 62.738903
1119.000000, 64.568367
1120.000000, 66.673691
1121.000000, 68.748268
1122.000000, 71.017571
1123.000000, 73.399475
1124.000000, 75.541771
1125.000000, 77.755074
1126.000000, 79.937454
1127.000000, 81.933746
1128.000000, 83.798126
1129.000000, 85.589912
1130.000000, 86.962807
1131.000000, 88.081535
1132.000000, 88.867599
1133.000000, 89.415932
1134.000000, 89.471359
1135.000000, 89.330788
1136.000000, 88.747765
1137.000000, 87.834457
1138.000000, 86.820091
1139.000000, 85.489029
1140.000000, 84.066559
1141.000000, 82.439125
1142.000000, 80.617325
1143.000000, 79.032906
1144.000000, 77.183342
1145.000000, 75.350075
1146.000000, 73.680046
1147.000000, 72.052711
1148.000000, 70.370598
1149.000000, 68.880898
1150.000000, 67.447899
1151.000000, 66.101486
1152.000000, 64.852676
1153.000000, 63.790749
1154.000000, 62.806499
1155.000000, 61.995094
1156.000000, 61.184227
1157.000000, 60.589619
1158.000000, 60.060764
1159.000000, 59.707378
1160.000000, 59.430885
1161.000000, 59.168285
1162.000000, 59.038776
1163.000000, 59.087540
1164.000000, 59.218704
1165.000000, 59.386032
1166.000000, 59.749866
1167.000000, 60.234283
1168.000000, 60.701134
1169.000000, 61.406868
1170.000000, 62.134659
1171.000000, 62.912231
1172.000000, 63.781292
1173.000000, 64.849052
1174.000000, 66.026581
1175.000000, 67.099152
1176.000000, 68.374870
1177.000000, 69.715958
1178.000000, 71.038681
1179.000000, 72.420204
1180.000000, 74.019241
1181.000000, 75.488220
1182.000000, 77.066223
1183.000000, 78.454376
1184.000000, 79.955925
1185.000000, 81.328491
1186.000000, 82.660866
1187.000000, 84.018456
1188.000000, 85.153404
1189.000000, 86.049789
1190.000000, 86.966866
1191.000000, 87.767555
1192.000000, 88.405518
1193.000000, 88.684074
1194.000000, 89.023376
1195.000000, 89.035278
1196.000000, 88.975983
1197.000000, 88.611145
1198.000000, 88.086769
1199.000000, 87.483505
1200.000000, 86.794449
1201.000000, 85.991928
1202.000000, 84.987160
1203.000000, 83.948486
1204.000000, 82.805115
1205.000000, 81.472923
1206.000000, 80.283676
1207.000000, 79.016052
1208.000000, 77.857460
1209.000000, 76.621353
1210.000000, 75.399513
1211.000000, 74.287430
1212.000000, 73.056534
1213.000000, 72.075684
1214.000000, 71.108589
1215.000000, 70.108055
1216.000000, 69.228600
1217.000000, 68.501457
1218.000000, 67.726555
1219.000000, 67.054512
1220.000000, 66.473465
1221.000000, 65.978935
1222.000000, 65.482864
1223.000000, 65.179535
1224.000000, 64.836823
1225.000000, 64.584396
1226.000000, 64.539742
1227.000000, 64.452652
1228.000000, 64.507111
1229.000000, 64.480255
1230.000000, 64.674255
1231.000000, 64.866379
1232.000000, 65.173561
1233.000000, 65.505402
1234.000000, 65.943512
1235.000000, 66.408264
1236.000000, 66.998848
1237.000000, 67.569443
1238.000000, 68.239761
1239.000000, 69.057587
1240.000000, 69.823662
1241.000000, 70.722282
1242.000000, 71.527206
1243.000000, 72.470238
1244.000000, 73.535881
1245.000000, 74.449310
1246.000000, 75.720482
1247.000000, 76.677063
1248.000000, 77.781723
1249.000000, 78.838066
1250.000000, 79.998886
1251.000000, 81.137444
1252.000000, 82.164604
1253.000000, 83.243271
1254.000000, 84.188545
1255.000000, 85.208160
1256.000000, 86.181839
1257.000000, 87.160042
1258.000000, 87.891479
1259.000000, 88.544235
1260.000000, 89.174873
1261.000000, 89.615891
1262.000000, 90.135689
1263.000000, 90.710129
1264.000000, 90.763695
1265.000000, 90.884895
1266.000000, 90.906090
1267.000000, 90.937744
1268.000000, 90.616104
1269.000000, 90.491890
1270.000000, 90.079407
1271.000000, 89.559540
1272.000000, 89.045013
1273.000000, 88.485550
1274.000000, 87.841476
1275.000000, 87.029892
1276.000000, 86.247833
1277.000000, 85.470711
1278.000000, 84.760910
1279.000000, 83.732048
1280.000000, 82.930885
1281.000000, 82.022919
1282.000000, 81.139107
1283.000000, 80.479317
1284.000000, 79.646996
1285.000000, 78.867500
1286.000000, 78.030617
1287.000000, 77.264252
1288.000000, 76.638565
1289.000000, 76.029732
1290.000000, 75.285576
1291.000000, 74.723999
1292.000000, 74.230164
1293.000000, 73.719643
1294.000000, 73.284027
1295.000000, 72.798904
1296.000000, 72.415504
1297.000000, 72.074203
1298.000000, 71.827919
1299.000000, 71.682884
1300.000000, 71.378120
1301.000000, 71.306267
1302.000000, 71.204697
1303.000000, 71.190514
1304.000000, 71.292801
1305.000000, 71.324776
1306.000000, 71.461594
1307.000000, 71.643005
1308.000000, 71.793785
1309.000000, 72.192993
1310.000000, 72.339996
1311.000000, 72.735703
1312.000000, 73.130127
1313.000000, 73.528725
1314.000000, 73.937897
1315.000000, 74.543396
1316.000000, 74.985329
1317.000000, 75.573441
1318.000000, 76.206055
1319.000000, 76.809975
1320.000000, 77.440125
1321.000000, 78.084778
1322.000000, 78.866623
1323.000000, 79.601723
1324.000000, 80.381187
1325.000000, 81.056610
1326.000000, 81.683434
1327.000000, 82.480530
1328.000000, 83.215012
1329.000000, 84.009758
1330.000000, 84.698219
1331.000000, 85.327423
1332.000000, 86.133354
1333.000000, 86.851143
1334.000000, 87.272652
1335.000000, 88.010773
1336.000000, 88.591370
1337.000000, 89.069069
1338.000000, 89.612144
1339.000000, 90.045731
1340.000000, 90.524498
1341.000000, 90.764343
1342.000000, 91.060188
1343.000000, 91.323143
1344.000000, 91.349922
1345.000000, 91.505836
1346.000000, 91.513863
1347.000000, 91.623856
1348.000000, 91.471138
1349.000000, 91.293640
1350.000000, 91.007721
1351.000000, 90.812508
1352.000000, 90.434326
1353.000000, 90.146935
1354.000000, 89.722664
1355.000000, 89.288734
1356.000000, 88.801193
1357.000000, 88.207291
1358.000000, 87.724915
1359.000000, 87.211121
1360.000000, 86.628830
1361.000000, 85.966621
1362.000000, 85.362091
1363.000000, 84.830551
1364.000000, 84.243683
1365.000000, 83.609650
1366.000000, 83.057762
1367.000000, 82.397736
1368.000000, 81.793083
1369.000000, 81.302254
1370.000000, 80.708115
1371.000000, 80.169037
1372.000000, 79.587982
1373.000000, 79.206535
1374.000000, 78.645920
1375.000000, 78.144386
1376.000000, 77.727966
1377.000000, 77.390327
1378.000000, 76.962807
1379.000000, 76.604118
1380.000000, 76.278427
1381.000000, 76.033752
1382.000000, 75.748192
1383.000000, 75.467834
1384.000000, 75.198494
1385.000000, 75.157066
1386.000000, 75.064201
1387.000000, 74.941788
1388.000000, 74.813858
1389.000000, 74.813950
1390.000000, 74.851402
1391.000000, 74.801369
1392.000000, 74.788940
1393.000000, 74.870613
1394.000000, 74.995583
1395.000000, 75.088257
1396.000000, 75.302040
1397.000000, 75.505470
1398.000000, 75.778114
1399.000000, 75.965919
1400.000000, 76.220100
1401.000000, 76.595528
1402.000000, 76.894341
1403.000000, 77.302521
1404.000000, 77.609161
1405.000000, 77.989426
1406.000000, 78.324074
1407.000000, 78.837112
1408.000000, 79.161964
1409.000000, 79.598709
1410.000000, 80.013191
1411.000000, 80.449173
1412.000000, 80.902252
1413.000000, 81.318108
1414.000000, 81.830391
1415.000000, 82.156105
1416.000000, 82.649681
1417.000000, 83.031090
1418.000000, 83.523438
1419.000000, 83.867104
1420.000000, 84.310966
1421.000000, 84.640724
1422.000000, 84.994415
1423.000000, 85.288559
1424.000000, 85.709717
1425.000000, 86.058960
1426.000000, 86.557991
1427.000000, 86.812302
1428.000000, 87.210701
1429.000000, 87.523216
1430.000000, 87.804863
1431.000000, 88.189384
1432.000000, 88.477554
1433.000000, 88.830772
1434.000000, 88.979019
1435.000000, 89.185249
1436.000000, 89.443558
1437.000000, 89.558220
1438.000000, 89.749283
1439.000000, 89.744965
1440.000000, 89.750832
1441.000000, 89.891609
1442.000000, 89.838661
1443.000000, 89.606514
1444.000000, 89.657959
1445.000000, 89.428879
1446.000000, 89.361420
1447.000000, 89.078377
1448.000000, 88.862770
1449.000000, 88.661118
1450.000000, 88.525017
1451.000000, 88.190704
1452.000000, 87.918945
1453.000000, 87.551102
1454.000000, 87.228928
1455.000000, 86.939293
1456.000000, 86.607437
1457.000000, 86.261963
1458.000000, 85.865311
1459.000000, 85.391022
1460.000000, 85.039055
1461.000000, 84.788528
1462.000000, 84.410301
1463.000000, 83.937172
1464.000000, 83.714348
1465.000000, 83.180634
1466.000000, 82.906952
1467.000000, 82.482636
1468.000000, 82.120415
1469.000000, 81.772163
1470.000000, 81.499504
1471.000000, 81.217873
1472.000000, 80.827507
1473.000000, 80.547272
1474.000000, 80.255905
1475.000000, 79.937775
1476.000000, 79.734367
1477.000000, 79.441147
1478.000000, 79.326782
1479.000000, 79.142288
1480.000000, 79.047142
1481.000000, 78.718529
1482.000000, 78.655281
1483.000000, 78.482040
1484.000000, 78.406380
1485.000000, 78.237068
1486.000000, 78.179520
1487.000000, 78.171219
1488.000000, 78.067604
1489.000000, 78.128815
1490.000000, 78.072685
1491.000000, 78.129021
1492.000000, 78.043114
1493.000000, 78.177254
1494.000000, 78.308823
1495.000000, 78.380318
1496.000000, 78.337585
1497.000000, 78.442612
1498.000000, 78.626961
1499.000000, 78.871078
1500.000000, 79.079453
1501.000000, 79.219337
1502.000000, 79.470512
1503.000000, 79.614380
1504.000000, 79.843750
1505.000000, 80.117310
1506.000000, 80.330444
1507.000000, 80.568382
1508.000000, 80.770004
1509.000000, 81.089302
1510.000000, 81.316101
1511.000000, 81.664001
1512.000000, 81.924690
1513.000000, 82.163689
1514.000000, 82.558617
1515.000000, 82.884842
1516.000000, 83.125252
1517.000000, 83.343887
1518.000000, 83.727013
1519.000000, 84.095810
1520.000000, 84.358093
1521.000000, 84.713882
1522.000000, 84.841713
1523.000000, 85.188835
1524.000000, 85.493050
1525.000000, 85.753235
1526.000000, 86.083923
1527.000000, 86.420280
1528.000000, 86.628914
1529.000000, 86.923370
1530.000000, 87.089043
1531.000000, 87.405029
1532.000000, 87.626724
1533.000000, 87.798065
1534.000000, 87.926407
1535.000000, 88.267845
1536.000000, 88.483078
1537.000000, 88.622360
1538.000000, 88.822083
1539.000000, 88.941330
1540.000000, 89.062302
1541.000000, 89.099167
1542.000000, 89.325417
1543.000000, 89.498016
1544.000000, 89.543793
1545.000000, 89.579025
1546.000000, 89.674179
1547.000000, 89.830795
1548.000000, 89.958336
1549.000000, 90.084335
1550.000000, 90.181442
1551.000000, 90.116631
1552.000000, 90.049324
1553.000000, 90.140381
1554.000000, 90.171776
1555.000000, 89.919128
1556.000000, 89.922852
1557.000000, 89.896843
1558.000000, 89.732124
1559.000000, 89.663582
1560.000000, 89.480209
1561.000000, 89.381828
1562.000000, 89.229477
1563.000000, 88.866074
1564.000000, 88.801804
1565.000000, 88.666313
1566.000000, 88.408112
1567.000000, 88.134415
1568.000000, 87.956894
1569.000000, 87.664116
1570.000000, 87.443939
1571.000000, 87.158104
1572.000000, 86.832932
1573.000000, 86.610565
1574.000000, 86.334000
1575.000000, 86.079041
1576.000000, 85.835777
1577.000000, 85.597221
1578.000000, 85.443474
1579.000000, 85.086693
1580.000000, 84.745720
1581.000000, 84.644760
1582.000000, 84.337265
1583.000000, 84.034431
1584.000000, 83.787262
1585.000000, 83.613800
1586.000000, 83.344582
1587.000000, 83.100403
1588.000000, 82.979347
1589.000000, 82.832085
1590.000000, 82.537369
1591.000000, 82.440063
1592.000000, 82.300247
1593.000000, 82.071831
1594.000000, 81.899841
1595.000000, 81.776413
1596.000000, 81.586746
1597.000000, 81.568375
1598.000000, 81.415611
1599.000000, 81.366577
1600.000000, 81.220352
1601.000000, 81.182541
1602.000000, 81.079224
1603.000000, 81.115013
1604.000000, 80.970612
1605.000000, 80.986076
1606.000000, 80.898842
1607.000000, 80.879608
1608.000000, 80.929657
1609.000000, 80.911270
1610.000000, 81.017548
1611.000000, 80.941788
1612.000000, 80.960922
1613.000000, 81.128609
1614.000000, 81.056389
1615.000000, 81.143570
1616.000000, 81.201729
1617.000000, 81.329445
1618.000000, 81.415680
1619.000000, 81.509277
1620.000000, 81.557709
1621.000000, 81.768166
1622.000000, 81.771606
1623.000000, 81.995522
1624.000000, 82.228943
1625.000000, 82.407234
1626.000000, 82.477440
1627.000000, 82.669220
1628.000000, 82.931511
1629.000000, 83.002464
1630.000000, 83.220207
1631.000000, 83.306671
1632.000000, 83.561920
1633.000000, 83.657005
1634.000000, 83.938400
1635.000000, 84.087631
1636.000000, 84.308235
1637.000000, 84.508667
1638.000000, 84.763802
1639.000000, 84.906670
1640.000000, 85.018608
1641.000000, 85.146690
1642.000000, 85.288513
1643.000000, 85.527519
1644.000000, 85.616997
1645.000000, 85.775620
1646.000000, 85.829521
1647.000000, 85.991554
1648.000000, 86.227921
1649.000000, 86.430054
1650.000000, 86.538429
1651.000000, 86.678658
1652.000000, 86.830772
1653.000000, 87.007072
1654.000000, 87.204666
1655.000000, 87.295334
1656.000000, 87.233261
1657.000000, 87.378349
1658.000000, 87.245270
1659.000000, 87.191483
1660.000000, 87.057289
1661.000000, 86.959221
1662.000000, 86.760056
1663.000000, 86.511902
1664.000000, 86.171928
1665.000000, 85.826210
1666.000000, 85.605553
1667.000000, 85.432022
1668.000000, 85.188591
1669.000000, 84.934959
1670.000000, 85.078445
1671.000000, 84.984657
1672.000000, 85.333496
1673.000000, 85.510323
1674.000000, 85.700027
1675.000000, 85.879532
1676.000000, 85.995140
1677.000000, 86.084068
1678.000000, 86.262955
1679.000000, 86.488434
1680.000000, 86.294846
1681.000000, 86.200020
1682.000000, 86.100403
1683.000000, 85.789299
1684.000000, 85.478561
1685.000000, 85.143944
1686.000000, 84.887894
1687.000000, 84.691154
1688.000000, 84.395424
1689.000000, 84.170029
1690.000000, 84.068733
1691.000000, 84.039780
1692.000000, 83.975853
1693.000000, 83.847549
1694.000000, 83.829102
1695.000000, 83.579803
1696.000000, 83.423180
1697.000000, 83.172760
1698.000000, 82.824478
1699.000000, 82.754501
1700.000000, 82.525909
1701.000000, 82.415947
1702.000000, 82.460327
1703.000000, 82.486977
1704.000000, 82.489136
1705.000000, 82.387405
1706.000000, 82.361885
1707.000000, 82.403770
1708.000000, 82.378838
1709.000000, 82.233894
1710.000000, 82.269005
1711.000000, 81.997917
1712.000000, 82.084846
1713.000000, 81.863876
1714.000000, 81.712746
1715.000000, 81.447540
1716.000000, 81.240692
1717.000000, 81.205994
1718.000000, 80.949409
1719.000000, 80.783722
1720.000000, 80.595932
1721.000000, 80.457130
1722.000000, 80.287048
1723.000000, 80.228416
1724.000000, 80.134895
1725.000000, 80.071838
1726.000000, 80.012283
1727.000000, 79.857513
1728.000000, 79.819702
1729.000000, 79.654137
1730.000000, 79.528221
1731.000000, 79.453606
1732.000000, 79.393768
1733.000000, 79.271423
1734.000000, 79.209793
1735.000000, 79.102058
1736.000000, 79.059532
1737.000000, 79.080246
1738.000000, 79.104492
1739.000000, 79.090958
1740.000000, 79.145103
1741.000000, 79.288689
1742.000000, 79.241562
1743.000000, 79.509918
1744.000000, 79.566772
1745.000000, 79.667671
1746.000000, 79.857162
1747.000000, 79.985008
1748.000000, 79.945190
1749.000000, 80.079269
1750.000000, 80.245499
1751.000000, 80.211327
1752.000000, 80.362335
1753.000000, 80.483673
1754.000000, 80.572945
1755.000000, 80.597649
1756.000000, 80.775986
1757.000000, 80.816940
1758.000000, 80.898384
1759.000000, 80.961174
1760.000000, 80.918854
1761.000000, 81.078583
1762.000000, 81.094215
1763.000000, 81.140083
1764.000000, 81.149750
1765.000000, 81.344124
1766.000000, 81.341934
1767.000000, 81.500946
1768.000000, 81.603363
1769.000000, 81.771729
1770.000000, 81.860420
1771.000000, 82.020752
1772.000000, 82.188232
1773.000000, 82.347092
1774.000000, 82.555939
1775.000000, 82.828156
1776.000000, 83.022598
1777.000000, 83.197945
1778.000000, 83.400131
1779.000000, 83.532333
1780.000000, 83.797905
1781.000000, 84.034309
1782.000000, 84.124672
1783.000000, 84.419281
1784.000000, 84.659546
1785.000000, 84.677658
1786.000000, 85.011017
1787.000000, 85.103104
1788.000000, 85.249718
1789.000000, 85.467178
1790.000000, 85.596321
1791.000000, 85.735176
1792.000000, 85.891052
1793.000000, 86.059868
1794.000000, 86.343361
1795.000000, 86.458031
1796.000000, 86.549362
1797.000000, 86.541771
1798.000000, 86.816681
1799.000000, 86.959900
1800.000000, 87.120560
1801.000000, 87.164833
1802.000000, 87.259438
1803.000000, 87.427612
1804.000000, 87.496262
1805.000000, 87.574028
1806.000000, 87.742287
1807.000000, 87.887955
1808.000000, 88.048828
1809.000000, 88.083206
1810.000000, 88.163391
1811.000000, 88.163307
1812.000000, 88.214958
1813.000000, 88.297134
1814.000000, 88.385300
1815.000000, 88.437035
1816.000000, 88.498482
1817.000000, 88.417404
1818.000000, 88.583687
1819.000000, 88.587914
1820.000000, 88.528458
1821.000000, 88.793221
1822.000000, 88.825958
1823.000000, 88.560661
1824.000000, 88.634407
1825.000000, 88.684021
1826.000000, 88.673409
1827.000000, 88.678391
1828.000000, 88.486038
1829.000000, 88.608223
1830.000000, 88.692841
1831.000000, 88.608902
1832.000000, 88.546631
1833.000000, 88.475052
1834.000000, 88.568764
1835.000000, 88.424835
1836.000000, 88.429726
1837.000000, 88.333000
1838.000000, 88.289909
1839.000000, 88.286675
1840.000000, 88.120491
1841.000000, 88.150635
1842.000000, 88.134521
1843.000000, 88.032303
1844.000000, 87.835953
1845.000000, 87.762901
1846.000000, 87.737343
1847.000000, 87.667961
1848.000000, 87.580170
1849.000000, 87.518181
1850.000000, 87.358025
1851.000000, 87.246811
1852.000000, 87.165878
1853.000000, 87.085518
1854.000000, 86.984200
1855.000000, 86.864403
1856.000000, 86.821754
1857.000000, 86.650108
1858.000000, 86.516472
1859.000000, 86.404587
1860.000000, 86.377098
1861.000000, 86.264587
1862.000000, 85.963074
1863.000000, 86.048851
1864.000000, 85.831169
1865.000000, 85.846153
1866.000000, 85.595192
1867.000000, 85.546478
1868.000000, 85.374634
1869.000000, 85.314804
1870.000000, 85.151764
1871.000000, 84.972473
1872.000000, 84.969978
1873.000000, 84.824303
1874.000000, 84.670380
1875.000000, 84.678360
1876.000000, 84.553757
1877.000000, 84.472450
1878.000000, 84.286224
1879.000000, 84.289207
1880.000000, 84.126045
1881.000000, 84.056389
1882.000000, 83.901665
1883.000000, 83.791214
1884.000000, 83.701393
1885.000000, 83.653328
1886.000000, 83.700737
1887.000000, 83.530724
1888.000000, 83.410713
1889.000000, 83.339729
1890.000000, 83.175484
1891.000000, 83.282936
1892.000000, 83.095421
1893.000000, 83.093712
1894.000000, 83.034225
1895.000000, 82.938766
1896.000000, 82.831833
1897.000000, 82.913818
1898.000000, 82.651070
1899.000000, 82.659027
1900.000000, 82.644203
1901.000000, 82.575562
1902.000000, 82.546143
1903.000000, 82.558807
1904.000000, 82.532104
1905.000000, 82.359276
1906.000000, 82.409706
1907.000000, 82.386955
1908.000000, 82.414528
1909.000000, 82.455757
1910.000000, 82.411537
1911.000000, 82.386688
1912.000000, 82.387390
1913.000000, 82.512512
1914.000000, 82.297562
1915.000000, 82.506310
1916.000000, 82.498039
1917.000000, 82.423439
1918.000000, 82.465477
1919.000000, 82.551506
1920.000000, 82.579742
1921.000000, 82.555405
1922.000000, 82.693398
1923.000000, 82.686775
1924.000000, 82.709625
1925.000000, 82.750046
1926.000000, 82.840057
1927.000000, 82.894485
1928.000000, 82.822021
1929.000000, 83.121376
1930.000000, 83.116928
1931.000000, 83.196472
1932.000000, 83.163986
1933.000000, 83.296959
1934.000000, 83.311684
1935.000000, 83.458260
1936.000000, 83.493446
1937.000000, 83.608109
1938.000000, 83.655670
1939.000000, 83.887520
1940.000000, 83.828911
1941.000000, 83.995529
1942.000000, 84.090027
1943.000000, 84.045013
1944.000000, 84.275017
1945.000000, 84.302231
1946.000000, 84.523575
1947.000000, 84.545830
1948.000000, 84.591713
1949.000000, 84.752319
1950.000000, 84.906677
1951.000000, 84.989494
1952.000000, 85.170059
1953.000000, 85.138527
1954.000000, 85.422989
1955.000000, 85.454628
1956.000000, 85.467079
1957.000000, 85.609138
1958.000000, 85.642952
1959.000000, 85.780846
1960.000000, 85.943764
1961.000000, 86.029694
1962.000000, 86.046173
1963.000000, 86.206261
1964.000000, 86.303619
1965.000000, 86.444717
1966.000000, 86.505737
1967.000000, 86.588142
1968.000000, 86.848770
1969.000000, 86.941834
1970.000000, 86.967476
1971.000000, 87.143333
1972.000000, 87.202324
1973.000000, 87.203178
1974.000000, 87.436661
1975.000000, 87.477348
1976.000000, 87.566963
1977.000000, 87.594780
1978.000000, 87.677208
1979.000000, 87.791061
1980.000000, 87.844528
1981.000000, 87.963646
1982.000000, 88.124046
1983.000000, 88.106178
1984.000000, 88.150513
1985.000000, 88.131622
1986.000000, 88.206169
1987.000000, 88.301239
1988.000000, 88.360176
1989.000000, 88.296173
1990.000000, 88.372765
1991.000000, 88.448753
1992.000000, 88.522743
1993.000000, 88.397499
1994.000000, 88.411964
1995.000000, 88.473557
1996.000000, 88.460068
1997.000000, 88.394722
1998.000000, 88.504524
1999.000000, 88.412537
2000.000000, 88.502663
2001.000000, 88.372101
2002.000000, 88.433166
2003.000000, 88.408730
2004.000000, 88.356697
2005.000000, 88.349411
2006.000000, 88.230743
2007.000000, 88.302544
2008.000000, 88.224152
2009.000000, 88.128403
2010.000000, 88.045128
2011.000000, 88.022293
2012.000000, 87.984459
2013.000000, 87.857773
2014.000000, 87.821938
2015.000000, 87.864548
2016.000000, 87.680260
2017.000000, 87.668983
2018.000000, 87.392700
2019.000000, 87.493935
2020.000000, 87.292503
2021.000000, 87.211357
2022.000000, 87.161827
2023.000000, 86.931160
2024.000000, 86.861588
2025.000000, 86.638535
2026.000000, 86.647346
2027.000000, 86.570808
2028.000000, 86.390862
2029.000000, 86.287193
2030.000000, 86.142212
2031.000000, 85.956726
2032.000000, 85.906807
2033.000000, 85.828957
2034.000000, 85.688278
2035.000000, 85.567467
2036.000000, 85.431313
2037.000000, 85.271004
2038.000000, 85.114449
2039.000000, 85.021179
2040.000000, 84.889870
2041.000000, 84.638115
2042.000000, 84.565216
2043.000000, 84.429787
2044.000000, 84.404747
2045.000000, 84.239586
2046.000000, 83.971909
2047.000000, 83.869919
2048.000000, 83.749321
2049.000000, 83.592796
2050.000000, 83.453667
2051.000000, 83.273026
2052.000000, 83.204933
2053.000000, 83.107285
2054.000000, 82.922676
2055.000000, 82.684639
2056.000000, 82.637108
2057.000000, 82.390900
2058.000000, 82.225990
2059.000000, 82.129730
2060.000000, 81.958076
2061.000000, 81.847374
2062.000000, 81.646645
2063.000000, 81.486305
2064.000000, 81.433418
2065.000000, 81.178780
2066.000000, 81.124237
2067.000000, 80.814468
2068.000000, 80.729279
2069.000000, 80.562248
2070.000000, 80.335327
2071.000000, 80.244598
2072.000000, 80.031624
2073.000000, 79.868698
2074.000000, 79.684715
2075.000000, 79.556908
2076.000000, 79.451744
2077.000000, 79.167229
2078.000000, 79.099312
2079.000000, 78.918137
2080.000000, 78.732269
2081.000000, 78.803162
2082.000000, 78.547585
2083.000000, 78.455124
2084.000000, 78.315392
2085.000000, 78.154549
2086.000000, 78.134010
2087.000000, 77.964783
2088.000000, 77.873589
2089.000000, 77.822945
2090.000000, 77.794342
2091.000000, 77.718307
2092.000000, 77.548485
2093.000000, 77.570549
2094.000000, 77.522369
2095.000000, 77.437431
2096.000000, 77.350845
2097.000000, 77.434891
2098.000000, 77.278969
2099.000000, 77.275520
2100.000000, 77.359428
2101.000000, 77.280907
2102.000000, 77.197189
2103.000000, 77.184982
2104.000000, 77.202477
2105.000000, 77.101059
2106.000000, 77.174644
2107.000000, 77.129974
2108.000000, 77.027214
2109.000000, 77.122284
2110.000000, 76.979721
2111.000000, 76.961792
2112.000000, 76.942635
2113.000000, 76.943001
2114.000000, 76.948326
2115.000000, 76.865944
2116.000000, 76.909798
2117.000000, 76.817596
2118.000000, 76.822540
2119.000000, 76.751030
2120.000000, 76.689438
2121.000000, 76.604134
2122.000000, 76.594246
2123.000000, 76.540825
2124.000000, 76.368828
2125.000000, 76.341637
2126.000000, 76.135567
2127.000000, 75.962677
2128.000000, 75.627457
2129.000000, 75.475601
2130.000000, 74.975571
2131.000000, 74.624046
2132.000000, 74.347343
2133.000000, 73.930344
2134.000000, 73.750420
2135.000000, 73.677673
2136.000000, 73.548683
2137.000000, 73.678741
2138.000000, 73.753426
2139.000000, 74.003860
2140.000000, 74.255196
2141.000000, 74.633728
2142.000000, 74.890991
2143.000000, 75.197548
2144.000000, 75.538277
2145.000000, 75.705917
2146.000000, 75.955978
2147.000000, 76.160240
2148.000000, 76.148483
2149.000000, 76.263817
2150.000000, 76.097473
2151.000000, 76.126358
2152.000000, 75.869766
2153.000000, 75.637993
2154.000000, 75.439064
2155.000000, 75.134506
2156.000000, 74.751648
2157.000000, 74.464729
2158.000000, 73.988815
2159.000000, 73.730400
2160.000000, 73.308205
2161.000000, 73.187187
2162.000000, 73.026566
2163.000000, 73.026443
2164.000000, 73.150734
2165.000000, 73.397911
2166.000000, 73.819038
2167.000000, 74.426537
2168.000000, 74.958321
2169.000000, 75.570419
2170.000000, 76.171646
2171.000000, 76.876038
2172.000000, 77.295555
2173.000000, 77.872437
2174.000000, 78.217285
2175.000000, 78.466499
2176.000000, 78.653847
2177.000000, 78.925667
2178.000000, 79.060982
2179.000000, 79.203400
2180.000000, 79.198753
2181.000000, 79.285004
2182.000000, 79.312805
2183.000000, 79.217636
2184.000000, 79.242607
2185.000000, 79.280289
2186.000000, 79.257133
2187.000000, 79.116402
2188.000000, 79.181168
2189.000000, 79.241524
2190.000000, 79.254189
2191.000000, 79.219315
2192.000000, 79.366089
2193.000000, 79.471497
2194.000000, 79.610764
2195.000000, 79.713669
2196.000000, 79.805275
2197.000000, 79.884819
2198.000000, 80.032333
2199.000000, 79.995186
2200.000000, 80.059471
2201.000000, 80.052010
2202.000000, 80.090149
2203.000000, 80.092148
2204.000000, 80.041046
2205.000000, 80.034363
2206.000000, 80.021782
2207.000000, 80.103401
2208.000000, 80.002998
2209.000000, 80.072861
2210.000000, 80.143150
2211.000000, 80.294632
2212.000000, 80.268852
2213.000000, 80.473404
2214.000000, 80.499992
2215.000000, 80.580643
2216.000000, 80.787941
2217.000000, 80.745605
2218.000000, 80.918869
2219.000000, 80.834290
2220.000000, 80.922356
2221.000000, 80.972496
2222.000000, 80.845795
2223.000000, 80.841431
2224.000000, 80.738205
2225.000000, 80.653954
2226.000000, 80.508888
2227.000000, 80.324951
2228.000000, 80.241432
2229.000000, 80.108871
2230.000000, 79.943001
2231.000000, 79.806580
2232.000000, 79.698448
2233.000000, 79.572144
2234.000000, 79.510475
2235.000000, 79.476318
2236.000000, 79.370918
2237.000000, 79.239204
2238.000000, 79.176620
2239.000000, 78.940605
2240.000000, 78.893845
2241.000000, 78.757950
2242.000000, 78.607330
2243.000000, 78.278671
2244.000000, 77.969360
2245.000000, 77.855019
2246.000000, 77.584587
2247.000000, 77.139702
2248.000000, 76.833267
2249.000000, 76.486870
2250.000000, 75.973930
2251.000000, 75.614571
2252.000000, 75.143051
2253.000000, 74.676804
2254.000000, 74.130127
2255.000000, 73.565361
2256.000000, 73.044075
2257.000000, 72.433022
2258.000000, 71.875519
2259.000000, 71.203743
2260.000000, 70.608711
2261.000000, 69.945229
2262.000000, 69.320984
2263.000000, 68.644218
2264.000000, 67.867699
2265.000000, 67.269981
2266.000000, 66.552116
2267.000000, 65.804253
2268.000000, 65.137764
2269.000000, 64.505623
2270.000000, 63.933868
2271.000000, 63.405834
2272.000000, 62.838406
2273.000000, 62.448906
2274.000000, 62.259907
2275.000000, 61.845123
2276.000000, 61.747406
2277.000000, 61.660023
2278.000000, 61.521595
2279.000000, 61.321796
2280.000000, 61.259819
2281.000000, 61.115116
2282.000000, 60.929714
2283.000000, 60.748734
2284.000000, 60.565395
2285.000000, 60.344429
2286.000000, 60.089291
2287.000000, 59.834213
2288.000000, 59.588234
2289.000000, 59.346992
2290.000000, 59.091335
2291.000000, 58.881195
2292.000000, 58.720970
2293.000000, 58.401062
2294.000000, 58.141582
2295.000000, 57.911255
2296.000000, 57.636250
2297.000000, 57.331837
2298.000000, 57.172005
2299.000000, 56.882797
2300.000000, 56.699448
2301.000000, 56.546066
2302.000000, 56.342651
2303.000000, 56.141609
2304.000000, 56.069763
2305.000000, 55.865814
2306.000000, 55.681068
2307.000000, 55.531448
2308.000000, 55.256184
2309.000000, 55.045612
2310.000000, 54.748196
2311.000000, 54.508823
2312.000000, 54.332245
2313.000000, 54.194397
2314.000000, 54.043549
2315.000000, 54.081036
2316.000000, 54.168129
2317.000000, 54.383976
2318.000000, 54.706650
2319.000000, 55.143345
2320.000000, 55.572693
2321.000000, 56.125969
2322.000000, 56.650024
2323.000000, 57.044132
2324.000000, 57.581413
2325.000000, 57.915932
2326.000000, 58.221661
2327.000000, 58.603580
2328.000000, 59.003639
2329.000000, 59.205608
2330.000000, 59.464615
2331.000000, 59.761383
2332.000000, 60.037613
2333.000000, 60.239418
2334.000000, 60.562420
2335.000000, 60.694862
2336.000000, 60.853470
2337.000000, 61.066723
2338.000000, 61.139362
2339.000000, 61.178482
2340.000000, 61.237026
2341.000000, 61.285484
2342.000000, 61.192558
2343.000000, 61.287712
2344.000000, 61.252125
2345.000000, 61.142887
2346.000000, 61.142750
2347.000000, 61.060608
2348.000000, 61.029770
2349.000000, 61.125278
2350.000000, 61.002861
2351.000000, 61.023777
2352.000000, 61.066628
2353.000000, 61.137444
2354.000000, 61.135715
2355.000000, 61.228073
2356.000000, 61.241638
2357.000000, 61.255093
2358.000000, 61.260445
2359.000000, 61.211853
2360.000000, 61.197315
2361.000000, 61.140568
2362.000000, 61.008560
2363.000000, 60.952930
2364.000000, 61.060055
2365.000000, 60.904018
2366.000000, 61.009686
2367.000000, 60.955925
2368.000000, 61.088341
2369.000000, 61.119415
2370.000000, 61.119259
2371.000000, 61.248650
2372.000000, 61.285454
2373.000000, 61.365654
2374.000000, 61.322464
2375.000000, 61.420078
2376.000000, 61.535412
2377.000000, 61.525162
2378.000000, 61.564167
2379.000000, 61.630981
2380.000000, 61.584991
2381.000000, 61.542374
2382.000000, 61.489677
2383.000000, 61.370975
2384.000000, 61.306370
2385.000000, 61.286831
2386.000000, 61.094658
2387.000000, 61.031944
2388.000000, 60.943401
2389.000000, 60.816513
2390.000000, 60.803951
2391.000000, 60.720360
2392.000000, 60.548080
2393.000000, 60.493816
2394.000000, 60.419827
2395.000000, 60.307640
2396.000000, 60.207008
2397.000000, 60.132038
2398.000000, 59.957790
2399.000000, 59.939480
2400.000000, 59.966480
2401.000000, 59.958614
2402.000000, 59.903465
2403.000000, 60.065197
2404.000000, 60.124767
2405.000000, 60.244579
2406.000000, 60.619385
2407.000000, 60.850952
2408.000000, 61.063854
2409.000000, 61.372440
2410.000000, 61.601212
2411.000000, 61.851387
2412.000000, 62.167244
2413.000000, 62.381989
2414.000000, 62.465817
2415.000000, 62.748314
2416.000000, 62.905205
2417.000000, 62.990242
2418.000000, 63.218124
2419.000000, 63.344131
2420.000000, 63.351440
2421.000000, 63.554756
2422.000000, 63.600189
2423.000000, 63.596851
2424.000000, 63.677452
2425.000000, 63.704575
2426.000000, 63.808800
2427.000000, 63.739437
2428.000000, 63.769798
2429.000000, 63.684338
2430.000000, 63.674725
2431.000000, 63.686798
2432.000000, 63.587505
2433.000000, 63.497311
2434.000000, 63.401264
2435.000000, 63.234276
2436.000000, 63.058617
2437.000000, 62.937443
2438.000000, 62.643929
2439.000000, 62.335594
2440.000000, 61.976315
2441.000000, 61.694622
2442.000000, 61.195141
2443.000000, 60.700504
2444.000000, 60.270531
2445.000000, 59.694336
2446.000000, 59.135429
2447.000000, 58.586617
2448.000000, 58.098923
2449.000000, 57.544064
2450.000000, 57.062237
2451.000000, 56.543571
2452.000000, 56.098248
2453.000000, 55.604397
2454.000000, 55.084492
2455.000000, 54.667439
2456.000000, 54.241936
2457.000000, 53.781330
2458.000000, 53.345043
2459.000000, 53.095551
2460.000000, 52.955143
2461.000000, 52.783619
2462.000000, 52.969654
2463.000000, 53.154587
2464.000000, 53.339176
2465.000000, 53.771198
2466.000000, 54.305695
2467.000000, 54.740463
2468.000000, 55.334705
2469.000000, 56.087208
2470.000000, 56.677582
2471.000000, 57.230484
2472.000000, 57.797676
2473.000000, 58.412872
2474.000000, 58.963280
2475.000000, 59.538578
2476.000000, 60.036884
2477.000000, 60.414440
2478.000000, 60.753757
2479.000000, 61.166245
2480.000000, 61.410255
2481.000000, 61.594200
2482.000000, 61.803322
2483.000000, 61.841385
2484.000000, 61.828156
2485.000000, 61.985485
2486.000000, 61.919411
2487.000000, 61.868565
2488.000000, 61.842167
2489.000000, 61.829556
2490.000000, 61.787869
2491.000000, 61.741138
2492.000000, 61.733170
2493.000000, 61.734726
2494.000000, 61.654545
2495.000000, 61.661762
2496.000000, 61.638184
2497.000000, 61.509521
2498.000000, 61.346680
2499.000000, 61.347050
2500.000000, 61.161308
2501.000000, 61.000263
2502.000000, 61.064156
2503.000000, 60.783958
2504.000000, 60.674961
2505.000000, 60.603405
2506.000000, 60.470951
2507.000000, 60.344147
2508.000000, 60.277920
2509.000000, 60.192955
2510.000000, 60.101223
2511.000000, 60.073872
2512.000000, 60.063927
2513.000000, 60.082256
2514.000000, 60.132114
2515.000000, 60.230232
2516.000000, 60.342014
2517.000000, 60.388748
2518.000000, 60.649532
2519.000000, 60.859047
2520.000000, 60.962593
2521.000000, 61.085747
2522.000000, 61.313637
2523.000000, 61.500240
2524.000000, 61.667912
2525.000000, 61.879856
2526.000000, 62.090744
2527.000000, 62.301922
2528.000000, 62.449722
2529.000000, 62.655746
2530.000000, 62.821537
2531.000000, 62.999111
2532.000000, 63.298416
2533.000000, 63.316010
2534.000000, 63.385181
2535.000000, 63.607151
2536.000000, 63.769001
2537.000000, 63.746117
2538.000000, 63.886051
2539.000000, 63.878208
2540.000000, 63.938095
2541.000000, 64.005180
2542.000000, 63.932629
2543.000000, 63.950668
2544.000000, 63.868534
2545.000000, 63.871487
2546.000000, 63.945812
2547.000000, 63.808567
2548.000000, 63.716446
2549.000000, 63.728992
2550.000000, 63.720573
2551.000000, 63.575279
2552.000000, 63.489902
2553.000000, 63.541508
2554.000000, 63.414627
2555.000000, 63.405861
2556.000000, 63.381016
2557.000000, 63.422688
2558.000000, 63.298546
2559.000000, 63.327469
2560.000000, 63.388474
2561.000000, 63.352955
2562.000000, 63.415432
2563.000000, 63.426495
2564.000000, 63.416077
2565.000000, 63.417511
2566.000000, 63.509048
2567.000000, 63.580589
2568.000000, 63.537971
2569.000000, 63.636620
2570.000000, 63.606667
2571.000000, 63.640285
2572.000000, 63.578285
2573.000000, 63.629063
2574.000000, 63.683052
2575.000000, 63.593376
2576.000000, 63.691860
2577.000000, 63.623619
2578.000000, 63.631016
2579.000000, 63.760323
2580.000000, 63.821487
2581.000000, 63.999660
2582.000000, 64.053673
2583.000000, 64.275352
2584.000000, 64.398987
2585.000000, 64.698982
2586.000000, 64.798767
2587.000000, 65.067825
2588.000000, 65.251404
2589.000000, 65.464745
2590.000000, 65.670670
2591.000000, 65.854797
2592.000000, 65.959717
2593.000000, 66.189316
2594.000000, 66.409111
2595.000000, 66.568489
2596.000000, 66.744339
2597.000000, 66.853729
2598.000000, 67.023041
2599.000000, 67.083115
2600.000000, 67.126228
