# Wavelength  (nm), Transmission (%)
200.000000, 0.000153
201.000000, 0.000151
202.000000, 0.000162
203.000000, 0.000161
204.000000, 0.000152
205.000000, 0.000145
206.000000, 0.000141
207.000000, 0.000162
208.000000, 0.000137
209.000000, 0.000133
210.000000, 0.000160
211.000000, 0.000130
212.000000, 0.000150
213.000000, 0.000148
214.000000, 0.000149
215.000000, 0.000153
216.000000, 0.000143
217.000000, 0.000153
218.000000, 0.000153
219.000000, 0.000142
220.000000, 0.000155
221.000000, 0.000158
222.000000, 0.000144
223.000000, 0.000158
224.000000, 0.000157
225.000000, 0.000140
226.000000, 0.000150
227.000000, 0.000144
228.000000, 0.000152
229.000000, 0.000137
230.000000, 0.000141
231.000000, 0.000139
232.000000, 0.000129
233.000000, 0.000128
234.000000, 0.000128
235.000000, 0.000117
236.000000, 0.000126
237.000000, 0.000113
238.000000, 0.000118
239.000000, 0.000107
240.000000, 0.000102
241.000000, 0.000096
242.000000, 0.000095
243.000000, 0.000103
244.000000, 0.000096
245.000000, 0.000086
246.000000, 0.000098
247.000000, 0.000090
248.000000, 0.000093
249.000000, 0.000077
250.000000, 0.000096
251.000000, 0.000081
252.000000, 0.000084
253.000000, 0.000083
254.000000, 0.000079
255.000000, 0.000083
256.000000, 0.000088
257.000000, 0.000084
258.000000, 0.000086
259.000000, 0.000093
260.000000, 0.000084
261.000000, 0.000082
262.000000, 0.000088
263.000000, 0.000090
264.000000, 0.000102
265.000000, 0.000079
266.000000, 0.000089
267.000000, 0.000078
268.000000, 0.000082
269.000000, 0.000085
270.000000, 0.000093
271.000000, 0.000094
272.000000, 0.000086
273.000000, 0.000099
274.000000, 0.000086
275.000000, 0.000090
276.000000, 0.000098
277.000000, 0.000094
278.000000, 0.000089
279.000000, 0.000085
280.000000, 0.000088
281.000000, 0.000091
282.000000, 0.000090
283.000000, 0.000086
284.000000, 0.000084
285.000000, 0.000080
286.000000, 0.000099
287.000000, 0.000081
288.000000, 0.000086
289.000000, 0.000087
290.000000, 0.000074
291.000000, 0.000093
292.000000, 0.000070
293.000000, 0.000067
294.000000, 0.000083
295.000000, 0.000061
296.000000, 0.000060
297.000000, 0.000074
298.000000, 0.000068
299.000000, 0.000071
300.000000, 0.000049
301.000000, 0.000064
302.000000, 0.000046
303.000000, 0.000040
304.000000, 0.000063
305.000000, 0.000031
306.000000, 0.000044
307.000000, 0.000037
308.000000, 0.000027
309.000000, 0.000048
310.000000, 0.000025
311.000000, 0.000031
312.000000, 0.000013
313.000000, 0.000025
314.000000, 0.000022
315.000000, 0.000036
316.000000, 0.000016
317.000000, 0.000015
318.000000, 0.000016
319.000000, 0.000023
320.000000, 0.000023
321.000000, 0.000001
322.000000, 0.000014
323.000000, 0.000008
324.000000, 0.000014
325.000000, 0.000024
326.000000, -0.000002
327.000000, 0.000011
328.000000, 0.000018
329.000000, 0.000024
330.000000, 0.000012
331.000000, 0.000001
332.000000, 0.000019
333.000000, 0.000007
334.000000, 0.000002
335.000000, 0.000004
336.000000, 0.000004
337.000000, 0.000002
338.000000, 0.000026
339.000000, 0.000020
340.000000, 0.000008
341.000000, 0.000009
342.000000, 0.000011
343.000000, 0.000004
344.000000, 0.000008
345.000000, -0.000002
346.000000, 0.000014
347.000000, 0.000004
348.000000, 0.000003
349.000000, -0.000127
350.000000, 0.000001
351.000000, 0.000009
352.000000, 0.000008
353.000000, -0.000006
354.000000, 0.000013
355.000000, -0.000005
356.000000, 0.000011
357.000000, 0.000004
358.000000, -0.000000
359.000000, 0.000014
360.000000, -0.000005
361.000000, 0.000004
362.000000, 0.000010
363.000000, -0.000012
364.000000, 0.000017
365.000000, 0.000004
366.000000, 0.000004
367.000000, -0.000001
368.000000, 0.000010
369.000000, 0.000008
370.000000, 0.000008
371.000000, 0.000004
372.000000, 0.000005
373.000000, 0.000007
374.000000, 0.000006
375.000000, 0.000008
376.000000, 0.000003
377.000000, -0.000005
378.000000, 0.000004
379.000000, 0.000002
380.000000, 0.000010
381.000000, 0.000005
382.000000, 0.000010
383.000000, -0.000006
384.000000, 0.000006
385.000000, 0.000010
386.000000, 0.000007
387.000000, 0.000020
388.000000, 0.000009
389.000000, -0.000007
390.000000, 0.000003
391.000000, 0.000012
392.000000, 0.000009
393.000000, 0.000010
394.000000, -0.000000
395.000000, 0.000009
396.000000, 0.000011
397.000000, 0.000002
398.000000, 0.000010
399.000000, -0.000002
400.000000, 0.000001
401.000000, 0.000010
402.000000, 0.000008
403.000000, 0.000009
404.000000, 0.000005
405.000000, -0.000009
406.000000, 0.000006
407.000000, 0.000009
408.000000, 0.000008
409.000000, -0.000002
410.000000, 0.000001
411.000000, 0.000007
412.000000, 0.000010
413.000000, -0.000000
414.000000, 0.000002
415.000000, 0.000005
416.000000, 0.000006
417.000000, -0.000006
418.000000, 0.000004
419.000000, 0.000005
420.000000, 0.000002
421.000000, 0.000007
422.000000, 0.000008
423.000000, 0.000006
424.000000, -0.000008
425.000000, 0.000005
426.000000, 0.000009
427.000000, -0.000005
428.000000, 0.000004
429.000000, 0.000003
430.000000, 0.000007
431.000000, -0.000002
432.000000, 0.000004
433.000000, 0.000015
434.000000, 0.000010
435.000000, 0.000008
436.000000, -0.000007
437.000000, 0.000001
438.000000, 0.000011
439.000000, 0.000013
440.000000, 0.000004
441.000000, 0.000013
442.000000, -0.000007
443.000000, 0.000012
444.000000, 0.000012
445.000000, 0.000006
446.000000, 0.000004
447.000000, 0.000004
448.000000, 0.000003
449.000000, 0.000018
450.000000, 0.000005
451.000000, 0.000008
452.000000, 0.000008
453.000000, 0.000004
454.000000, 0.000005
455.000000, 0.000010
456.000000, 0.000003
457.000000, 0.000005
458.000000, -0.000003
459.000000, 0.000007
460.000000, 0.000002
461.000000, 0.000006
462.000000, 0.000011
463.000000, 0.000002
464.000000, 0.000008
465.000000, 0.000001
466.000000, 0.000001
467.000000, 0.000004
468.000000, 0.000007
469.000000, 0.000003
470.000000, 0.000006
471.000000, 0.000001
472.000000, 0.000008
473.000000, 0.000006
474.000000, 0.000004
475.000000, 0.000006
476.000000, 0.000004
477.000000, 0.000005
478.000000, 0.000005
479.000000, 0.000006
480.000000, 0.000011
481.000000, 0.000006
482.000000, 0.000003
483.000000, 0.000002
484.000000, 0.000006
485.000000, 0.000002
486.000000, 0.000008
487.000000, 0.000000
488.000000, 0.000005
489.000000, 0.000001
490.000000, 0.000004
491.000000, 0.000003
492.000000, 0.000010
493.000000, 0.000006
494.000000, 0.000003
495.000000, 0.000006
496.000000, 0.000005
497.000000, 0.000006
498.000000, 0.000004
499.000000, 0.000003
500.000000, 0.000006
501.000000, 0.000007
502.000000, 0.000006
503.000000, 0.000000
504.000000, 0.000011
505.000000, 0.000004
506.000000, 0.000005
507.000000, 0.000005
508.000000, 0.000000
509.000000, 0.000008
510.000000, 0.000002
511.000000, 0.000004
512.000000, 0.000015
513.000000, 0.000002
514.000000, 0.000008
515.000000, 0.000008
516.000000, 0.000005
517.000000, 0.000006
518.000000, -0.000001
519.000000, 0.000007
520.000000, 0.000004
521.000000, 0.000013
522.000000, 0.000016
523.000000, 0.000013
524.000000, 0.000008
525.000000, 0.000007
526.000000, 0.000007
527.000000, 0.000007
528.000000, 0.000004
529.000000, 0.000003
530.000000, 0.000008
531.000000, 0.000004
532.000000, 0.000007
533.000000, 0.000007
534.000000, 0.000010
535.000000, 0.000001
536.000000, 0.000008
537.000000, 0.000002
538.000000, 0.000003
539.000000, 0.000002
540.000000, 0.000008
541.000000, 0.000007
542.000000, 0.000005
543.000000, 0.000004
544.000000, 0.000001
545.000000, 0.000006
546.000000, 0.000003
547.000000, 0.000004
548.000000, 0.000007
549.000000, 0.000004
550.000000, 0.000006
551.000000, 0.000001
552.000000, 0.000002
553.000000, 0.000003
554.000000, 0.000005
555.000000, 0.000004
556.000000, 0.000008
557.000000, 0.000000
558.000000, 0.000010
559.000000, 0.000003
560.000000, 0.000002
561.000000, -0.000001
562.000000, 0.000004
563.000000, 0.000005
564.000000, 0.000003
565.000000, 0.000004
566.000000, 0.000011
567.000000, 0.000002
568.000000, 0.000007
569.000000, -0.000002
570.000000, 0.000007
571.000000, 0.000010
572.000000, 0.000005
573.000000, 0.000002
574.000000, -0.000000
575.000000, 0.000003
576.000000, 0.000007
577.000000, 0.000002
578.000000, 0.000005
579.000000, 0.000002
580.000000, -0.000006
581.000000, -0.000001
582.000000, 0.000002
583.000000, 0.000001
584.000000, -0.000010
585.000000, 0.000004
586.000000, 0.000008
587.000000, -0.000010
588.000000, 0.000008
589.000000, -0.000002
590.000000, -0.000001
591.000000, 0.000003
592.000000, 0.000004
593.000000, -0.000012
594.000000, 0.000004
595.000000, -0.000006
596.000000, 0.000001
597.000000, 0.000006
598.000000, -0.000008
599.000000, 0.000002
600.000000, 0.000015
601.000000, -0.000006
602.000000, 0.000002
603.000000, 0.000006
604.000000, 0.000001
605.000000, 0.000004
606.000000, 0.000005
607.000000, 0.000003
608.000000, 0.000008
609.000000, 0.000001
610.000000, 0.000006
611.000000, 0.000003
612.000000, 0.000013
613.000000, 0.000002
614.000000, 0.000002
615.000000, 0.000003
616.000000, 0.000006
617.000000, 0.000002
618.000000, 0.000009
619.000000, 0.000001
620.000000, 0.000001
621.000000, 0.000004
622.000000, 0.000001
623.000000, 0.000003
624.000000, 0.000001
625.000000, -0.000001
626.000000, 0.000013
627.000000, 0.000003
628.000000, 0.000005
629.000000, 0.000006
630.000000, 0.000005
631.000000, 0.000005
632.000000, 0.000001
633.000000, -0.000004
634.000000, 0.000004
635.000000, -0.000006
636.000000, 0.000002
637.000000, -0.000004
638.000000, -0.000001
639.000000, -0.000005
640.000000, -0.000003
641.000000, 0.000005
642.000000, 0.000007
643.000000, 0.000006
644.000000, 0.000005
645.000000, -0.000010
646.000000, -0.000002
647.000000, 0.000001
648.000000, 0.000005
649.000000, -0.000003
650.000000, 0.000003
651.000000, 0.000000
652.000000, 0.000007
653.000000, 0.000006
654.000000, 0.000006
655.000000, 0.000002
656.000000, 0.000002
657.000000, 0.000004
658.000000, -0.000001
659.000000, 0.000000
660.000000, 0.000004
661.000000, 0.000007
662.000000, 0.000008
663.000000, 0.000003
664.000000, -0.000001
665.000000, 0.000002
666.000000, 0.000003
667.000000, 0.000003
668.000000, 0.000008
669.000000, 0.000002
670.000000, 0.000004
671.000000, 0.000000
672.000000, 0.000014
673.000000, 0.000001
674.000000, 0.000002
675.000000, 0.000008
676.000000, 0.000006
677.000000, -0.000001
678.000000, 0.000005
679.000000, 0.000013
680.000000, 0.000009
681.000000, -0.000000
682.000000, 0.000005
683.000000, 0.000012
684.000000, -0.000000
685.000000, 0.000009
686.000000, 0.000013
687.000000, 0.000004
688.000000, 0.000004
689.000000, 0.000015
690.000000, 0.000010
691.000000, 0.000010
692.000000, 0.000020
693.000000, 0.000006
694.000000, 0.000008
695.000000, 0.000008
696.000000, 0.000016
697.000000, 0.000008
698.000000, 0.000011
699.000000, 0.000024
700.000000, 0.000005
701.000000, 0.000019
702.000000, 0.000013
703.000000, 0.000022
704.000000, 0.000022
705.000000, 0.000016
706.000000, 0.000031
707.000000, 0.000037
708.000000, 0.000024
709.000000, 0.000028
710.000000, 0.000043
711.000000, 0.000032
712.000000, 0.000032
713.000000, 0.000042
714.000000, 0.000055
715.000000, 0.000057
716.000000, 0.000069
717.000000, 0.000068
718.000000, 0.000102
719.000000, 0.000109
720.000000, 0.000135
721.000000, 0.000163
722.000000, 0.000222
723.000000, 0.000293
724.000000, 0.000373
725.000000, 0.000510
726.000000, 0.000693
727.000000, 0.000977
728.000000, 0.001331
729.000000, 0.001931
730.000000, 0.002771
731.000000, 0.003991
732.000000, 0.005895
733.000000, 0.008770
734.000000, 0.013144
735.000000, 0.020018
736.000000, 0.030945
737.000000, 0.048246
738.000000, 0.076967
739.000000, 0.125367
740.000000, 0.207882
741.000000, 0.354965
742.000000, 0.622354
743.000000, 1.130884
744.000000, 2.110300
745.000000, 4.014067
746.000000, 7.870947
747.000000, 15.480152
748.000000, 28.727827
749.000000, 47.356941
750.000000, 66.903511
751.000000, 80.602715
752.000000, 86.465797
753.000000, 87.600761
754.000000, 86.972870
755.000000, 86.244766
756.000000, 85.859596
757.000000, 85.580292
758.000000, 85.358589
759.000000, 85.188011
760.000000, 84.929031
761.000000, 84.850098
762.000000, 84.858635
763.000000, 85.092369
764.000000, 85.484436
765.000000, 86.059166
766.000000, 86.695297
767.000000, 87.317490
768.000000, 88.021729
769.000000, 88.581245
770.000000, 89.090744
771.000000, 89.385002
772.000000, 89.484200
773.000000, 89.534096
774.000000, 89.405403
775.000000, 89.445969
776.000000, 89.279541
777.000000, 89.123131
778.000000, 88.926819
779.000000, 88.905174
780.000000, 88.883141
781.000000, 88.892159
782.000000, 88.897339
783.000000, 88.909378
784.000000, 88.897003
785.000000, 88.996826
786.000000, 89.062431
787.000000, 88.881752
788.000000, 88.783607
789.000000, 88.726112
790.000000, 88.542946
791.000000, 88.438354
792.000000, 88.186989
793.000000, 88.139771
794.000000, 87.896263
795.000000, 87.793419
796.000000, 87.666550
797.000000, 87.708069
798.000000, 87.643616
799.000000, 87.658218
800.000000, 87.561493
801.000000, 87.670807
802.000000, 87.811783
803.000000, 87.996353
804.000000, 88.164833
805.000000, 88.379463
806.000000, 88.547722
807.000000, 88.784744
808.000000, 88.824829
809.000000, 88.851639
810.000000, 88.949028
811.000000, 88.962547
812.000000, 88.898453
813.000000, 88.878700
814.000000, 88.694771
815.000000, 88.605293
816.000000, 88.407425
817.000000, 88.198502
818.000000, 87.866409
819.000000, 87.686722
820.000000, 87.421021
821.000000, 87.244949
822.000000, 87.064102
823.000000, 86.830078
824.000000, 86.714943
825.000000, 86.534531
826.000000, 86.559410
827.000000, 86.621780
828.000000, 86.483994
829.000000, 86.565445
830.000000, 86.737930
831.000000, 86.797363
832.000000, 86.926971
833.000000, 87.067665
834.000000, 87.434883
835.000000, 87.455429
836.000000, 87.668266
837.000000, 87.970390
838.000000, 88.071518
839.000000, 88.277534
840.000000, 88.508011
841.000000, 88.624443
842.000000, 88.618645
843.000000, 88.816544
844.000000, 88.738869
845.000000, 88.796890
846.000000, 88.894295
847.000000, 88.729706
848.000000, 88.806114
849.000000, 88.673759
850.000000, 88.663345
851.000000, 88.436081
852.000000, 88.283134
853.000000, 88.091537
854.000000, 88.045471
855.000000, 88.031097
856.000000, 87.736969
857.000000, 87.566444
858.000000, 87.587563
859.000000, 87.474579
860.000000, 87.343742
861.000000, 87.364494
862.000000, 87.258682
863.000000, 87.284431
864.000000, 87.203018
865.000000, 87.191383
866.000000, 87.147461
867.000000, 87.148918
868.000000, 87.203819
869.000000, 87.328812
870.000000, 87.251701
871.000000, 87.407486
872.000000, 87.476280
873.000000, 87.514641
874.000000, 87.680511
875.000000, 87.798447
876.000000, 87.852249
877.000000, 87.853081
878.000000, 88.082817
879.000000, 88.132652
880.000000, 88.233513
881.000000, 88.270973
882.000000, 88.355553
883.000000, 88.417130
884.000000, 88.531662
885.000000, 88.642052
886.000000, 88.570610
887.000000, 88.697212
888.000000, 88.611313
889.000000, 88.754608
890.000000, 88.752808
891.000000, 88.677368
892.000000, 88.784691
893.000000, 88.818535
894.000000, 88.744354
895.000000, 88.667839
896.000000, 88.561371
897.000000, 88.543495
898.000000, 88.589966
899.000000, 88.568245
900.000000, 88.515968
901.000000, 88.366287
902.000000, 88.325211
903.000000, 88.278893
904.000000, 88.246788
905.000000, 88.125290
906.000000, 88.129334
907.000000, 88.074150
908.000000, 87.936157
909.000000, 87.875572
910.000000, 87.900681
911.000000, 87.795364
912.000000, 87.674873
913.000000, 87.791344
914.000000, 87.685753
915.000000, 87.555161
916.000000, 87.675278
917.000000, 87.523453
918.000000, 87.670311
919.000000, 87.571373
920.000000, 87.651863
921.000000, 87.696472
922.000000, 87.744415
923.000000, 87.738152
924.000000, 87.776985
925.000000, 87.891167
926.000000, 87.897385
927.000000, 88.041718
928.000000, 88.113609
929.000000, 88.097954
930.000000, 88.256317
931.000000, 88.294014
932.000000, 88.413528
933.000000, 88.431488
934.000000, 88.649925
935.000000, 88.594643
936.000000, 88.619141
937.000000, 88.655586
938.000000, 88.750038
939.000000, 88.858650
940.000000, 88.777863
941.000000, 88.746429
942.000000, 88.838882
943.000000, 88.921448
944.000000, 88.787430
945.000000, 88.759079
946.000000, 88.751930
947.000000, 88.682442
948.000000, 88.627495
949.000000, 88.380608
950.000000, 88.496056
951.000000, 88.359291
952.000000, 88.314934
953.000000, 88.188240
954.000000, 88.074936
955.000000, 87.990524
956.000000, 87.759438
957.000000, 87.766159
958.000000, 87.627892
959.000000, 87.611671
960.000000, 87.464897
961.000000, 87.342537
962.000000, 87.239471
963.000000, 87.293671
964.000000, 87.174850
965.000000, 87.133377
966.000000, 87.257179
967.000000, 87.025520
968.000000, 87.064522
969.000000, 87.037315
970.000000, 87.034981
971.000000, 87.022682
972.000000, 87.096260
973.000000, 87.073524
974.000000, 87.228737
975.000000, 87.274261
976.000000, 87.345978
977.000000, 87.272591
978.000000, 87.443077
979.000000, 87.565086
980.000000, 87.671539
981.000000, 87.778221
982.000000, 87.814674
983.000000, 87.891991
984.000000, 88.167053
985.000000, 88.204323
986.000000, 88.326714
987.000000, 88.435173
988.000000, 88.582573
989.000000, 88.628159
990.000000, 88.621788
991.000000, 88.770630
992.000000, 88.811577
993.000000, 88.844635
994.000000, 88.854897
995.000000, 88.971512
996.000000, 89.017494
997.000000, 89.071960
998.000000, 88.934113
999.000000, 88.906731
1000.000000, 88.913605
1001.000000, 88.868584
1002.000000, 88.871635
1003.000000, 88.795166
1004.000000, 88.721291
1005.000000, 88.743027
1006.000000, 88.648186
1007.000000, 88.490082
1008.000000, 88.478966
1009.000000, 88.349571
1010.000000, 88.266541
1011.000000, 88.167336
1012.000000, 87.989487
1013.000000, 87.979034
1014.000000, 87.824402
1015.000000, 87.792900
1016.000000, 87.802238
1017.000000, 87.597321
1018.000000, 87.558304
1019.000000, 87.505775
1020.000000, 87.506767
1021.000000, 87.489311
1022.000000, 87.446236
1023.000000, 87.414719
1024.000000, 87.289764
1025.000000, 87.467834
1026.000000, 87.366058
1027.000000, 87.329018
1028.000000, 87.298721
1029.000000, 87.353302
1030.000000, 87.409386
1031.000000, 87.425362
1032.000000, 87.479469
1033.000000, 87.555779
1034.000000, 87.767632
1035.000000, 87.777725
1036.000000, 87.714737
1037.000000, 87.956207
1038.000000, 87.941750
1039.000000, 87.985886
1040.000000, 88.146904
1041.000000, 88.140739
1042.000000, 88.226143
1043.000000, 88.356964
1044.000000, 88.448425
1045.000000, 88.507126
1046.000000, 88.628990
1047.000000, 88.639648
1048.000000, 88.708466
1049.000000, 88.805824
1050.000000, 88.833359
1051.000000, 88.842606
1052.000000, 88.824577
1053.000000, 88.825317
1054.000000, 88.882706
1055.000000, 88.949760
1056.000000, 88.883820
1057.000000, 88.920464
1058.000000, 88.748695
1059.000000, 88.852081
1060.000000, 88.846016
1061.000000, 88.810165
1062.000000, 88.745049
1063.000000, 88.683548
1064.000000, 88.616440
1065.000000, 88.503960
1066.000000, 88.595428
1067.000000, 88.341652
1068.000000, 88.271210
1069.000000, 88.263496
1070.000000, 88.083603
1071.000000, 88.159363
1072.000000, 88.031258
1073.000000, 87.883797
1074.000000, 87.841827
1075.000000, 87.721306
1076.000000, 87.699524
1077.000000, 87.491318
1078.000000, 87.506958
1079.000000, 87.417152
1080.000000, 87.262047
1081.000000, 87.297150
1082.000000, 87.285675
1083.000000, 87.166580
1084.000000, 87.140808
1085.000000, 87.068329
1086.000000, 87.072189
1087.000000, 87.087341
1088.000000, 87.059464
1089.000000, 87.046776
1090.000000, 87.063210
1091.000000, 87.215385
1092.000000, 87.088753
1093.000000, 87.190567
1094.000000, 87.123566
1095.000000, 87.232323
1096.000000, 87.261703
1097.000000, 87.341881
1098.000000, 87.476044
1099.000000, 87.542755
1100.000000, 87.620308
1101.000000, 87.674805
1102.000000, 87.634163
1103.000000, 87.806900
1104.000000, 87.793884
1105.000000, 87.842789
1106.000000, 88.069221
1107.000000, 88.138771
1108.000000, 88.182709
1109.000000, 88.195099
1110.000000, 88.334564
1111.000000, 88.384819
1112.000000, 88.371559
1113.000000, 88.524323
1114.000000, 88.548767
1115.000000, 88.786217
1116.000000, 88.695412
1117.000000, 88.694664
1118.000000, 88.726074
1119.000000, 88.780922
1120.000000, 88.784721
1121.000000, 88.823898
1122.000000, 88.775063
1123.000000, 88.850143
1124.000000, 88.805183
1125.000000, 88.671837
1126.000000, 88.675613
1127.000000, 88.667030
1128.000000, 88.548080
1129.000000, 88.551315
1130.000000, 88.366936
1131.000000, 88.403282
1132.000000, 88.250862
1133.000000, 88.219818
1134.000000, 88.125603
1135.000000, 88.043892
1136.000000, 87.875969
1137.000000, 87.909859
1138.000000, 87.813324
1139.000000, 87.755310
1140.000000, 87.734329
1141.000000, 87.634628
1142.000000, 87.436371
1143.000000, 87.482330
1144.000000, 87.445663
1145.000000, 87.356201
1146.000000, 87.355560
1147.000000, 87.201675
1148.000000, 87.178146
1149.000000, 87.165192
1150.000000, 87.107971
1151.000000, 86.991302
1152.000000, 87.014435
1153.000000, 86.966965
1154.000000, 86.959831
1155.000000, 86.920197
1156.000000, 86.971558
1157.000000, 86.815865
1158.000000, 86.890625
1159.000000, 86.820480
1160.000000, 86.906189
1161.000000, 86.707809
1162.000000, 86.751808
1163.000000, 86.777206
1164.000000, 86.864212
1165.000000, 86.852364
1166.000000, 86.797989
1167.000000, 86.846886
1168.000000, 86.898277
1169.000000, 86.928162
1170.000000, 86.979309
1171.000000, 87.012245
1172.000000, 87.044212
1173.000000, 87.038048
1174.000000, 87.081055
1175.000000, 87.071854
1176.000000, 87.099945
1177.000000, 87.210953
1178.000000, 87.242615
1179.000000, 87.266899
1180.000000, 87.373146
1181.000000, 87.399330
1182.000000, 87.327896
1183.000000, 87.386307
1184.000000, 87.486900
1185.000000, 87.426407
1186.000000, 87.614510
1187.000000, 87.520912
1188.000000, 87.456680
1189.000000, 87.456436
1190.000000, 87.621407
1191.000000, 87.650925
1192.000000, 87.683037
1193.000000, 87.807152
1194.000000, 87.758728
1195.000000, 87.917038
1196.000000, 87.904716
1197.000000, 87.852264
1198.000000, 88.018570
1199.000000, 88.063408
1200.000000, 88.101837
1201.000000, 88.238457
1202.000000, 88.182411
1203.000000, 88.209167
1204.000000, 88.175972
1205.000000, 88.245544
1206.000000, 88.194092
1207.000000, 88.246376
1208.000000, 88.241745
1209.000000, 88.291672
1210.000000, 88.242599
1211.000000, 88.218102
1212.000000, 88.180725
1213.000000, 88.195000
1214.000000, 88.216782
1215.000000, 88.099274
1216.000000, 88.017639
1217.000000, 87.997055
1218.000000, 87.929115
1219.000000, 88.119545
1220.000000, 87.918770
1221.000000, 87.907906
1222.000000, 87.862770
1223.000000, 87.824188
1224.000000, 87.791756
1225.000000, 87.756256
1226.000000, 87.747276
1227.000000, 87.628326
1228.000000, 87.713722
1229.000000, 87.681786
1230.000000, 87.574295
1231.000000, 87.634834
1232.000000, 87.531700
1233.000000, 87.413330
1234.000000, 87.559059
1235.000000, 87.436081
1236.000000, 87.445244
1237.000000, 87.417114
1238.000000, 87.447746
1239.000000, 87.459618
1240.000000, 87.427803
1241.000000, 87.384727
1242.000000, 87.466347
1243.000000, 87.440163
1244.000000, 87.435127
1245.000000, 87.509163
1246.000000, 87.395950
1247.000000, 87.378418
1248.000000, 87.388695
1249.000000, 87.566933
1250.000000, 87.579308
1251.000000, 87.500000
1252.000000, 87.502388
1253.000000, 87.631866
1254.000000, 87.668205
1255.000000, 87.709274
1256.000000, 87.667862
1257.000000, 87.830254
1258.000000, 87.728607
1259.000000, 87.774673
1260.000000, 87.861496
1261.000000, 88.012276
1262.000000, 87.926727
1263.000000, 87.991837
1264.000000, 88.151352
1265.000000, 88.193230
1266.000000, 88.185867
1267.000000, 88.292870
1268.000000, 88.249664
1269.000000, 88.381363
1270.000000, 88.459488
1271.000000, 88.560883
1272.000000, 88.502228
1273.000000, 88.519661
1274.000000, 88.639740
1275.000000, 88.663086
1276.000000, 88.631523
1277.000000, 88.770836
1278.000000, 88.772377
1279.000000, 88.874329
1280.000000, 88.946922
1281.000000, 88.969025
1282.000000, 88.950638
1283.000000, 89.042358
1284.000000, 89.029266
1285.000000, 89.172104
1286.000000, 89.043388
1287.000000, 89.084679
1288.000000, 89.130791
1289.000000, 89.105965
1290.000000, 89.176216
1291.000000, 89.043663
1292.000000, 89.139717
1293.000000, 89.193001
1294.000000, 89.098503
1295.000000, 89.057091
1296.000000, 89.183174
1297.000000, 89.087555
1298.000000, 89.174545
1299.000000, 89.140862
1300.000000, 89.046448
1301.000000, 89.108452
1302.000000, 89.094597
1303.000000, 88.978363
1304.000000, 89.030380
1305.000000, 88.946587
1306.000000, 88.903656
1307.000000, 88.839790
1308.000000, 88.818398
1309.000000, 88.718704
1310.000000, 88.863350
1311.000000, 88.730118
1312.000000, 88.683945
1313.000000, 88.617668
1314.000000, 88.588753
1315.000000, 88.627953
1316.000000, 88.654495
1317.000000, 88.495590
1318.000000, 88.453484
1319.000000, 88.509071
1320.000000, 88.340836
1321.000000, 88.369843
1322.000000, 88.269028
1323.000000, 88.343506
1324.000000, 88.127739
1325.000000, 88.257835
1326.000000, 88.185104
1327.000000, 88.064796
1328.000000, 88.123550
1329.000000, 88.122772
1330.000000, 88.132355
1331.000000, 87.970680
1332.000000, 87.975174
1333.000000, 87.947235
1334.000000, 88.062958
1335.000000, 87.969154
1336.000000, 87.995895
1337.000000, 87.890038
1338.000000, 87.917725
1339.000000, 87.837242
1340.000000, 87.887695
1341.000000, 87.933556
1342.000000, 87.832085
1343.000000, 87.738625
1344.000000, 87.901726
1345.000000, 87.938705
1346.000000, 87.872574
1347.000000, 87.834259
1348.000000, 87.865829
1349.000000, 87.797348
1350.000000, 87.865517
1351.000000, 87.847931
1352.000000, 87.784996
1353.000000, 87.813408
1354.000000, 87.713448
1355.000000, 87.829453
1356.000000, 87.768593
1357.000000, 87.837776
1358.000000, 87.801033
1359.000000, 87.835739
1360.000000, 87.922447
1361.000000, 87.814384
1362.000000, 87.970696
1363.000000, 87.936386
1364.000000, 87.899071
1365.000000, 87.881454
1366.000000, 87.916992
1367.000000, 87.909904
1368.000000, 87.844223
1369.000000, 87.958771
1370.000000, 87.899750
1371.000000, 88.000504
1372.000000, 88.085121
1373.000000, 87.963402
1374.000000, 87.941818
1375.000000, 87.917549
1376.000000, 87.935509
1377.000000, 88.039108
1378.000000, 88.013855
1379.000000, 87.966522
1380.000000, 87.943306
1381.000000, 88.030663
1382.000000, 88.028740
1383.000000, 88.108849
1384.000000, 88.125839
1385.000000, 88.069031
1386.000000, 88.117981
1387.000000, 88.065315
1388.000000, 88.115585
1389.000000, 88.102303
1390.000000, 88.018158
1391.000000, 88.119141
1392.000000, 88.139206
1393.000000, 88.124176
1394.000000, 88.039192
1395.000000, 88.075981
1396.000000, 88.042755
1397.000000, 88.128975
1398.000000, 88.069283
1399.000000, 88.084213
1400.000000, 88.062553
1401.000000, 88.117195
1402.000000, 88.037422
1403.000000, 87.980377
1404.000000, 88.053925
1405.000000, 87.977814
1406.000000, 87.846992
1407.000000, 87.787132
1408.000000, 87.842300
1409.000000, 87.748322
1410.000000, 87.710022
1411.000000, 87.585052
1412.000000, 87.458786
1413.000000, 87.393913
1414.000000, 87.315041
1415.000000, 87.309959
1416.000000, 87.174454
1417.000000, 87.000412
1418.000000, 86.806946
1419.000000, 86.604523
1420.000000, 86.601898
1421.000000, 86.365997
1422.000000, 86.198631
1423.000000, 86.039810
1424.000000, 85.847961
1425.000000, 85.808128
1426.000000, 85.643715
1427.000000, 85.630356
1428.000000, 85.509995
1429.000000, 85.546455
1430.000000, 85.455605
1431.000000, 85.343552
1432.000000, 85.466675
1433.000000, 85.379890
1434.000000, 85.471046
1435.000000, 85.374374
1436.000000, 85.426285
1437.000000, 85.363556
1438.000000, 85.401375
1439.000000, 85.419174
1440.000000, 85.420227
1441.000000, 85.413330
1442.000000, 85.378845
1443.000000, 85.428741
1444.000000, 85.561195
1445.000000, 85.487053
1446.000000, 85.540649
1447.000000, 85.561943
1448.000000, 85.486938
1449.000000, 85.618752
1450.000000, 85.580887
1451.000000, 85.595261
1452.000000, 85.573349
1453.000000, 85.588913
1454.000000, 85.713013
1455.000000, 85.582565
1456.000000, 85.789017
1457.000000, 85.608467
1458.000000, 85.680809
1459.000000, 85.681007
1460.000000, 85.763329
1461.000000, 85.714752
1462.000000, 85.747704
1463.000000, 85.803093
1464.000000, 85.885239
1465.000000, 85.851364
1466.000000, 85.874344
1467.000000, 85.895393
1468.000000, 85.821114
1469.000000, 85.984581
1470.000000, 85.909828
1471.000000, 86.014847
1472.000000, 86.069778
1473.000000, 85.974823
1474.000000, 86.128326
1475.000000, 86.031258
1476.000000, 86.261520
1477.000000, 86.267906
1478.000000, 86.252480
1479.000000, 86.278900
1480.000000, 86.320969
1481.000000, 86.368553
1482.000000, 86.439690
1483.000000, 86.473511
1484.000000, 86.515137
1485.000000, 86.655670
1486.000000, 86.652145
1487.000000, 86.672363
1488.000000, 86.685341
1489.000000, 86.806824
1490.000000, 86.692856
1491.000000, 86.818436
1492.000000, 86.703613
1493.000000, 86.931900
1494.000000, 87.098457
1495.000000, 87.001732
1496.000000, 87.113281
1497.000000, 87.131241
1498.000000, 87.127808
1499.000000, 87.191162
1500.000000, 87.323982
1501.000000, 87.358711
1502.000000, 87.263908
1503.000000, 87.319229
1504.000000, 87.356850
1505.000000, 87.438988
1506.000000, 87.484840
1507.000000, 87.564415
1508.000000, 87.390388
1509.000000, 87.602623
1510.000000, 87.560822
1511.000000, 87.659752
1512.000000, 87.499321
1513.000000, 87.621445
1514.000000, 87.636627
1515.000000, 87.728180
1516.000000, 87.690826
1517.000000, 87.607407
1518.000000, 87.636902
1519.000000, 87.650452
1520.000000, 87.706032
1521.000000, 87.665794
1522.000000, 87.681885
1523.000000, 87.629028
1524.000000, 87.662437
1525.000000, 87.585487
1526.000000, 87.602264
1527.000000, 87.685921
1528.000000, 87.537445
1529.000000, 87.517838
1530.000000, 87.512428
1531.000000, 87.586311
1532.000000, 87.532326
1533.000000, 87.445923
1534.000000, 87.470436
1535.000000, 87.399010
1536.000000, 87.432655
1537.000000, 87.403717
1538.000000, 87.397293
1539.000000, 87.390350
1540.000000, 87.376801
1541.000000, 87.378868
1542.000000, 87.446869
1543.000000, 87.281242
1544.000000, 87.387909
1545.000000, 87.316925
1546.000000, 87.290497
1547.000000, 87.349907
1548.000000, 87.444344
1549.000000, 87.368889
1550.000000, 87.481979
1551.000000, 87.341537
1552.000000, 87.445564
1553.000000, 87.446648
1554.000000, 87.464539
1555.000000, 87.378609
1556.000000, 87.428307
1557.000000, 87.495697
1558.000000, 87.478867
1559.000000, 87.416389
1560.000000, 87.473793
1561.000000, 87.330269
1562.000000, 87.379288
1563.000000, 87.400101
1564.000000, 87.342445
1565.000000, 87.329552
1566.000000, 87.321342
1567.000000, 87.343285
1568.000000, 87.264053
1569.000000, 87.370796
1570.000000, 87.302750
1571.000000, 87.321930
1572.000000, 87.216179
1573.000000, 87.229767
1574.000000, 87.238792
1575.000000, 87.231430
1576.000000, 87.111664
1577.000000, 87.183136
1578.000000, 87.240288
1579.000000, 87.128540
1580.000000, 87.026459
1581.000000, 87.105293
1582.000000, 87.068138
1583.000000, 87.051613
1584.000000, 87.178635
1585.000000, 87.024101
1586.000000, 87.014404
1587.000000, 87.180695
1588.000000, 87.139091
1589.000000, 87.120407
1590.000000, 87.161125
1591.000000, 87.082001
1592.000000, 87.145416
1593.000000, 87.035545
1594.000000, 87.129196
1595.000000, 87.155029
1596.000000, 87.105209
1597.000000, 87.029320
1598.000000, 87.160362
1599.000000, 87.162224
1600.000000, 87.156769
1601.000000, 87.145828
1602.000000, 87.216667
1603.000000, 87.159294
1604.000000, 87.136940
1605.000000, 87.195740
1606.000000, 87.174149
1607.000000, 87.261223
1608.000000, 87.255241
1609.000000, 87.257645
1610.000000, 87.273010
1611.000000, 87.257584
1612.000000, 87.198219
1613.000000, 87.314972
1614.000000, 87.236145
1615.000000, 87.230125
1616.000000, 87.231094
1617.000000, 87.212410
1618.000000, 87.161324
1619.000000, 87.207252
1620.000000, 87.257973
1621.000000, 87.259087
1622.000000, 87.201286
1623.000000, 87.316422
1624.000000, 87.250259
1625.000000, 87.300835
1626.000000, 87.291550
1627.000000, 87.338280
1628.000000, 87.283813
1629.000000, 87.331352
1630.000000, 87.270287
1631.000000, 87.125984
1632.000000, 87.112526
1633.000000, 87.079124
1634.000000, 87.024887
1635.000000, 87.000359
1636.000000, 87.056541
1637.000000, 86.943588
1638.000000, 86.845825
1639.000000, 86.855690
1640.000000, 86.858459
1641.000000, 86.736122
1642.000000, 86.737755
1643.000000, 86.479088
1644.000000, 86.440292
1645.000000, 86.172256
1646.000000, 86.241470
1647.000000, 86.145645
1648.000000, 85.980209
1649.000000, 85.966599
1650.000000, 85.952995
1651.000000, 86.020782
1652.000000, 86.121979
1653.000000, 85.988548
1654.000000, 85.991486
1655.000000, 85.833130
1656.000000, 85.818657
1657.000000, 85.644440
1658.000000, 85.450378
1659.000000, 85.258926
1660.000000, 84.931396
1661.000000, 84.640083
1662.000000, 84.393410
1663.000000, 83.879433
1664.000000, 83.485344
1665.000000, 82.993027
1666.000000, 82.579300
1667.000000, 82.213715
1668.000000, 81.901413
1669.000000, 81.630013
1670.000000, 81.585197
1671.000000, 81.545891
1672.000000, 81.883789
1673.000000, 81.892105
1674.000000, 82.174263
1675.000000, 82.411873
1676.000000, 82.586357
1677.000000, 82.807930
1678.000000, 82.856224
1679.000000, 82.999649
1680.000000, 83.061981
1681.000000, 82.960213
1682.000000, 82.765846
1683.000000, 82.535622
1684.000000, 82.276474
1685.000000, 82.079315
1686.000000, 81.752937
1687.000000, 81.401810
1688.000000, 81.397987
1689.000000, 81.272598
1690.000000, 81.305191
1691.000000, 81.196938
1692.000000, 81.183472
1693.000000, 81.193268
1694.000000, 81.252007
1695.000000, 81.035484
1696.000000, 80.991135
1697.000000, 80.664680
1698.000000, 80.586067
1699.000000, 80.457413
1700.000000, 80.471306
1701.000000, 80.646133
1702.000000, 80.559166
1703.000000, 80.722992
1704.000000, 80.957436
1705.000000, 81.075356
1706.000000, 81.193459
1707.000000, 81.212570
1708.000000, 81.397957
1709.000000, 81.496773
1710.000000, 81.573372
1711.000000, 81.711578
1712.000000, 81.695068
1713.000000, 81.609520
1714.000000, 81.655327
1715.000000, 81.605202
1716.000000, 81.591530
1717.000000, 81.428398
1718.000000, 81.384605
1719.000000, 81.283569
1720.000000, 81.256187
1721.000000, 81.158363
1722.000000, 81.408424
1723.000000, 81.225441
1724.000000, 81.267616
1725.000000, 81.206276
1726.000000, 81.294250
1727.000000, 81.272240
1728.000000, 81.232491
1729.000000, 81.295296
1730.000000, 81.256363
1731.000000, 81.240685
1732.000000, 81.169922
1733.000000, 81.170311
1734.000000, 81.067810
1735.000000, 81.172607
1736.000000, 81.151588
1737.000000, 81.060860
1738.000000, 81.260674
1739.000000, 81.310547
1740.000000, 81.338287
1741.000000, 81.480011
1742.000000, 81.660667
1743.000000, 81.720825
1744.000000, 81.852875
1745.000000, 81.916588
1746.000000, 82.126686
1747.000000, 82.298630
1748.000000, 82.363174
1749.000000, 82.391525
1750.000000, 82.480331
1751.000000, 82.607758
1752.000000, 82.685722
1753.000000, 82.771118
1754.000000, 82.707581
1755.000000, 82.847908
1756.000000, 82.771599
1757.000000, 82.805809
1758.000000, 82.761749
1759.000000, 82.858215
1760.000000, 82.668694
1761.000000, 82.689194
1762.000000, 82.765678
1763.000000, 82.722519
1764.000000, 82.680473
1765.000000, 82.710213
1766.000000, 82.658043
1767.000000, 82.632515
1768.000000, 82.645851
1769.000000, 82.663490
1770.000000, 82.700577
1771.000000, 82.707733
1772.000000, 82.777824
1773.000000, 82.818108
1774.000000, 82.834404
1775.000000, 82.938828
1776.000000, 83.012329
1777.000000, 83.195404
1778.000000, 83.183838
1779.000000, 83.380310
1780.000000, 83.440872
1781.000000, 83.458817
1782.000000, 83.469337
1783.000000, 83.568634
1784.000000, 83.619621
1785.000000, 83.640678
1786.000000, 83.706314
1787.000000, 83.755020
1788.000000, 83.683716
1789.000000, 83.807144
1790.000000, 83.733116
1791.000000, 83.788559
1792.000000, 83.890411
1793.000000, 83.936226
1794.000000, 83.945045
1795.000000, 84.004265
1796.000000, 83.956131
1797.000000, 84.114502
1798.000000, 84.053421
1799.000000, 84.015450
1800.000000, 84.082298
1801.000000, 83.938896
1802.000000, 84.080566
1803.000000, 84.110069
1804.000000, 83.993835
1805.000000, 84.160118
1806.000000, 84.219482
1807.000000, 84.152214
1808.000000, 84.198189
1809.000000, 84.160118
1810.000000, 84.226326
1811.000000, 84.152946
1812.000000, 84.168091
1813.000000, 84.285553
1814.000000, 84.165222
1815.000000, 84.198494
1816.000000, 84.298889
1817.000000, 84.247429
1818.000000, 84.314339
1819.000000, 84.388283
1820.000000, 84.360191
1821.000000, 84.349068
1822.000000, 84.420418
1823.000000, 84.479431
1824.000000, 84.429512
1825.000000, 84.383949
1826.000000, 84.404404
1827.000000, 84.436867
1828.000000, 84.502304
1829.000000, 84.467918
1830.000000, 84.651878
1831.000000, 84.547768
1832.000000, 84.610603
1833.000000, 84.552635
1834.000000, 84.604782
1835.000000, 84.744003
1836.000000, 84.695564
1837.000000, 84.789864
1838.000000, 84.703651
1839.000000, 84.864220
1840.000000, 84.777878
1841.000000, 84.812439
1842.000000, 84.924080
1843.000000, 84.798706
1844.000000, 84.906982
1845.000000, 84.919846
1846.000000, 84.938202
1847.000000, 84.961227
1848.000000, 84.955460
1849.000000, 85.030273
1850.000000, 84.978416
1851.000000, 85.042397
1852.000000, 85.116325
1853.000000, 85.015511
1854.000000, 85.096855
1855.000000, 85.114281
1856.000000, 85.181725
1857.000000, 85.261383
1858.000000, 85.206490
1859.000000, 85.244057
1860.000000, 85.243782
1861.000000, 85.207169
1862.000000, 85.204811
1863.000000, 85.236313
1864.000000, 85.188362
1865.000000, 85.283180
1866.000000, 85.281433
1867.000000, 85.191902
1868.000000, 85.321236
1869.000000, 85.259323
1870.000000, 85.284882
1871.000000, 85.209251
1872.000000, 85.303673
1873.000000, 85.275612
1874.000000, 85.151566
1875.000000, 85.320755
1876.000000, 85.251793
1877.000000, 85.261360
1878.000000, 85.185188
1879.000000, 85.228134
1880.000000, 85.261055
1881.000000, 85.210541
1882.000000, 85.350914
1883.000000, 85.290329
1884.000000, 85.183449
1885.000000, 85.243629
1886.000000, 85.243416
1887.000000, 85.168976
1888.000000, 85.182396
1889.000000, 85.177521
1890.000000, 85.222862
1891.000000, 85.184189
1892.000000, 84.996811
1893.000000, 85.058411
1894.000000, 84.998726
1895.000000, 85.127800
1896.000000, 85.024933
1897.000000, 84.990952
1898.000000, 84.879189
1899.000000, 84.794792
1900.000000, 84.897842
1901.000000, 84.747505
1902.000000, 84.769356
1903.000000, 84.756523
1904.000000, 84.677963
1905.000000, 84.756454
1906.000000, 84.618576
1907.000000, 84.707817
1908.000000, 84.663048
1909.000000, 84.609238
1910.000000, 84.676872
1911.000000, 84.652893
1912.000000, 84.555748
1913.000000, 84.635727
1914.000000, 84.590927
1915.000000, 84.556160
1916.000000, 84.514847
1917.000000, 84.579704
1918.000000, 84.453560
1919.000000, 84.548889
1920.000000, 84.546867
1921.000000, 84.526916
1922.000000, 84.478607
1923.000000, 84.467758
1924.000000, 84.561150
1925.000000, 84.434860
1926.000000, 84.347473
1927.000000, 84.550407
1928.000000, 84.493401
1929.000000, 84.361114
1930.000000, 84.358421
1931.000000, 84.386154
1932.000000, 84.419525
1933.000000, 84.450371
1934.000000, 84.388176
1935.000000, 84.368340
1936.000000, 84.429268
1937.000000, 84.404388
1938.000000, 84.386978
1939.000000, 84.410965
1940.000000, 84.387878
1941.000000, 84.397461
1942.000000, 84.493858
1943.000000, 84.418793
1944.000000, 84.425476
1945.000000, 84.452942
1946.000000, 84.458229
1947.000000, 84.399673
1948.000000, 84.435204
1949.000000, 84.436775
1950.000000, 84.473953
1951.000000, 84.449165
1952.000000, 84.452995
1953.000000, 84.534546
1954.000000, 84.453857
1955.000000, 84.483490
1956.000000, 84.474792
1957.000000, 84.414406
1958.000000, 84.436455
1959.000000, 84.468262
1960.000000, 84.418434
1961.000000, 84.355820
1962.000000, 84.468582
1963.000000, 84.449074
1964.000000, 84.422882
1965.000000, 84.443863
1966.000000, 84.434410
1967.000000, 84.420586
1968.000000, 84.445679
1969.000000, 84.461212
1970.000000, 84.437241
1971.000000, 84.465210
1972.000000, 84.431625
1973.000000, 84.343590
1974.000000, 84.458664
1975.000000, 84.515251
1976.000000, 84.376747
1977.000000, 84.519020
1978.000000, 84.374359
1979.000000, 84.421005
1980.000000, 84.388947
1981.000000, 84.426758
1982.000000, 84.366692
1983.000000, 84.490692
1984.000000, 84.455666
1985.000000, 84.401314
1986.000000, 84.425644
1987.000000, 84.428978
1988.000000, 84.450974
1989.000000, 84.494392
1990.000000, 84.308273
1991.000000, 84.399483
1992.000000, 84.329002
1993.000000, 84.373291
1994.000000, 84.353264
1995.000000, 84.258301
1996.000000, 84.222511
1997.000000, 84.273918
1998.000000, 84.181633
1999.000000, 84.096626
2000.000000, 84.036247
2001.000000, 84.055672
2002.000000, 83.879646
2003.000000, 83.915291
2004.000000, 83.738441
2005.000000, 83.821312
2006.000000, 83.704460
2007.000000, 83.719063
2008.000000, 83.599075
2009.000000, 83.583748
2010.000000, 83.561432
2011.000000, 83.584793
2012.000000, 83.440811
2013.000000, 83.376297
2014.000000, 83.275421
2015.000000, 83.201164
2016.000000, 83.266708
2017.000000, 83.124146
2018.000000, 83.080292
2019.000000, 82.995590
2020.000000, 82.862137
2021.000000, 82.805977
2022.000000, 82.778259
2023.000000, 82.687332
2024.000000, 82.662636
2025.000000, 82.603363
2026.000000, 82.449211
2027.000000, 82.354729
2028.000000, 82.331627
2029.000000, 82.155724
2030.000000, 82.111221
2031.000000, 82.013443
2032.000000, 81.894806
2033.000000, 81.751854
2034.000000, 81.744301
2035.000000, 81.536171
2036.000000, 81.504486
2037.000000, 81.461182
2038.000000, 81.328941
2039.000000, 81.189972
2040.000000, 81.112495
2041.000000, 81.142769
2042.000000, 80.950127
2043.000000, 80.813866
2044.000000, 80.664658
2045.000000, 80.539375
2046.000000, 80.509605
2047.000000, 80.544075
2048.000000, 80.372200
2049.000000, 80.340073
2050.000000, 80.149857
2051.000000, 80.081367
2052.000000, 80.042992
2053.000000, 79.900452
2054.000000, 79.854797
2055.000000, 79.673882
2056.000000, 79.630623
2057.000000, 79.551559
2058.000000, 79.545334
2059.000000, 79.281868
2060.000000, 79.220062
2061.000000, 79.139175
2062.000000, 79.052704
2063.000000, 78.968330
2064.000000, 78.877083
2065.000000, 78.758957
2066.000000, 78.551788
2067.000000, 78.606354
2068.000000, 78.378395
2069.000000, 78.304466
2070.000000, 78.274506
2071.000000, 78.071892
2072.000000, 78.092285
2073.000000, 78.001442
2074.000000, 77.850197
2075.000000, 77.728371
2076.000000, 77.539398
2077.000000, 77.505859
2078.000000, 77.507576
2079.000000, 77.328262
2080.000000, 77.234375
2081.000000, 77.191666
2082.000000, 77.107468
2083.000000, 77.130287
2084.000000, 77.025223
2085.000000, 76.933044
2086.000000, 76.912079
2087.000000, 76.949318
2088.000000, 76.851776
2089.000000, 76.711021
2090.000000, 76.723686
2091.000000, 76.687202
2092.000000, 76.627800
2093.000000, 76.632393
2094.000000, 76.573769
2095.000000, 76.581688
2096.000000, 76.434311
2097.000000, 76.447700
2098.000000, 76.505592
2099.000000, 76.426781
2100.000000, 76.421455
2101.000000, 76.418518
2102.000000, 76.307556
2103.000000, 76.289223
2104.000000, 76.328239
2105.000000, 76.258240
2106.000000, 76.100632
2107.000000, 76.154846
2108.000000, 76.062790
2109.000000, 75.986359
2110.000000, 75.946846
2111.000000, 75.871773
2112.000000, 75.893608
2113.000000, 75.839180
2114.000000, 75.693718
2115.000000, 75.704605
2116.000000, 75.603165
2117.000000, 75.467682
2118.000000, 75.410339
2119.000000, 75.250420
2120.000000, 75.284424
2121.000000, 75.168434
2122.000000, 75.028244
2123.000000, 74.876823
2124.000000, 74.710014
2125.000000, 74.587044
2126.000000, 74.350899
2127.000000, 73.972168
2128.000000, 73.638229
2129.000000, 73.372353
2130.000000, 72.901070
2131.000000, 72.488876
2132.000000, 72.074028
2133.000000, 71.630402
2134.000000, 71.327461
2135.000000, 71.087158
2136.000000, 71.113640
2137.000000, 71.035362
2138.000000, 71.292389
2139.000000, 71.395279
2140.000000, 71.714035
2141.000000, 72.035591
2142.000000, 72.207001
2143.000000, 72.590874
2144.000000, 72.847191
2145.000000, 72.952522
2146.000000, 73.211250
2147.000000, 73.247620
2148.000000, 73.341461
2149.000000, 73.280830
2150.000000, 73.214706
2151.000000, 72.972504
2152.000000, 72.664497
2153.000000, 72.446701
2154.000000, 72.125175
2155.000000, 71.792877
2156.000000, 71.156639
2157.000000, 70.705254
2158.000000, 70.272804
2159.000000, 69.809639
2160.000000, 69.434181
2161.000000, 69.176216
2162.000000, 68.929581
2163.000000, 68.969551
2164.000000, 68.940399
2165.000000, 69.267563
2166.000000, 69.674805
2167.000000, 70.124588
2168.000000, 70.672295
2169.000000, 71.212601
2170.000000, 71.766281
2171.000000, 72.377037
2172.000000, 72.792664
2173.000000, 73.306259
2174.000000, 73.564545
2175.000000, 73.779129
2176.000000, 73.963829
2177.000000, 74.158440
2178.000000, 74.115952
2179.000000, 74.155739
2180.000000, 74.088799
2181.000000, 74.074821
2182.000000, 74.021263
2183.000000, 73.894012
2184.000000, 73.754944
2185.000000, 73.610130
2186.000000, 73.547371
2187.000000, 73.402313
2188.000000, 73.229515
2189.000000, 73.211761
2190.000000, 73.091713
2191.000000, 73.066521
2192.000000, 73.078232
2193.000000, 73.048256
2194.000000, 73.052940
2195.000000, 73.000961
2196.000000, 72.935585
2197.000000, 72.863380
2198.000000, 72.611092
2199.000000, 72.491547
2200.000000, 72.333618
2201.000000, 72.194366
2202.000000, 72.020988
2203.000000, 71.752907
2204.000000, 71.614136
2205.000000, 71.463387
2206.000000, 71.411400
2207.000000, 71.218864
2208.000000, 71.320549
2209.000000, 71.292892
2210.000000, 71.388084
2211.000000, 71.552589
2212.000000, 71.710297
2213.000000, 71.889374
2214.000000, 72.162071
2215.000000, 72.321213
2216.000000, 72.528999
2217.000000, 72.698334
2218.000000, 72.876610
2219.000000, 73.025185
2220.000000, 73.018135
2221.000000, 73.000710
2222.000000, 73.021065
2223.000000, 73.057022
2224.000000, 72.888855
2225.000000, 72.724655
2226.000000, 72.688713
2227.000000, 72.542038
2228.000000, 72.340782
2229.000000, 72.171661
2230.000000, 72.092743
2231.000000, 71.983482
2232.000000, 71.775200
2233.000000, 71.680130
2234.000000, 71.717262
2235.000000, 71.579918
2236.000000, 71.533875
2237.000000, 71.431145
2238.000000, 71.354263
2239.000000, 71.203133
2240.000000, 70.967011
2241.000000, 70.864883
2242.000000, 70.716492
2243.000000, 70.531883
2244.000000, 70.222000
2245.000000, 69.993591
2246.000000, 69.742363
2247.000000, 69.328773
2248.000000, 69.016029
2249.000000, 68.554428
2250.000000, 68.168297
2251.000000, 67.644379
2252.000000, 67.227760
2253.000000, 66.656212
2254.000000, 66.088776
2255.000000, 65.696373
2256.000000, 65.024414
2257.000000, 64.444435
2258.000000, 63.858223
2259.000000, 63.255108
2260.000000, 62.705948
2261.000000, 62.063114
2262.000000, 61.405800
2263.000000, 60.736721
2264.000000, 60.046883
2265.000000, 59.475445
2266.000000, 58.785213
2267.000000, 58.168953
2268.000000, 57.450314
2269.000000, 56.839687
2270.000000, 56.288864
2271.000000, 55.834614
2272.000000, 55.324406
2273.000000, 54.998989
2274.000000, 54.651703
2275.000000, 54.435623
2276.000000, 54.292179
2277.000000, 54.095776
2278.000000, 53.919422
2279.000000, 53.812813
2280.000000, 53.581436
2281.000000, 53.355373
2282.000000, 53.210552
2283.000000, 52.963036
2284.000000, 52.687508
2285.000000, 52.351784
2286.000000, 52.091061
2287.000000, 51.743881
2288.000000, 51.508419
2289.000000, 51.233356
2290.000000, 51.004936
2291.000000, 50.668144
2292.000000, 50.382835
2293.000000, 50.103043
2294.000000, 49.869362
2295.000000, 49.651520
2296.000000, 49.340225
2297.000000, 49.161732
2298.000000, 49.048016
2299.000000, 48.786980
2300.000000, 48.674519
2301.000000, 48.602840
2302.000000, 48.467278
2303.000000, 48.444977
2304.000000, 48.338318
2305.000000, 48.243351
2306.000000, 48.136242
2307.000000, 48.082752
2308.000000, 47.933495
2309.000000, 47.763271
2310.000000, 47.700226
2311.000000, 47.517067
2312.000000, 47.435566
2313.000000, 47.282925
2314.000000, 47.279415
2315.000000, 47.338665
2316.000000, 47.549469
2317.000000, 47.783497
2318.000000, 48.148308
2319.000000, 48.626118
2320.000000, 49.181957
2321.000000, 49.634682
2322.000000, 50.204937
2323.000000, 50.623150
2324.000000, 51.096981
2325.000000, 51.554646
2326.000000, 51.887478
2327.000000, 52.294731
2328.000000, 52.698952
2329.000000, 52.942364
2330.000000, 53.246170
2331.000000, 53.538555
2332.000000, 53.741707
2333.000000, 54.049828
2334.000000, 54.329727
2335.000000, 54.554504
2336.000000, 54.752766
2337.000000, 54.929775
2338.000000, 54.952438
2339.000000, 55.106880
2340.000000, 55.126667
2341.000000, 55.138161
2342.000000, 55.173649
2343.000000, 55.109234
2344.000000, 55.098801
2345.000000, 54.975594
2346.000000, 55.046715
2347.000000, 55.004681
2348.000000, 54.872631
2349.000000, 54.931736
2350.000000, 54.863747
2351.000000, 54.822231
2352.000000, 54.911064
2353.000000, 54.921669
2354.000000, 54.900818
2355.000000, 55.060417
2356.000000, 55.093563
2357.000000, 55.062531
2358.000000, 55.039932
2359.000000, 54.983807
2360.000000, 54.978329
2361.000000, 54.882507
2362.000000, 54.706322
2363.000000, 54.699833
2364.000000, 54.666000
2365.000000, 54.570667
2366.000000, 54.512451
2367.000000, 54.606365
2368.000000, 54.536533
2369.000000, 54.647976
2370.000000, 54.699455
2371.000000, 54.704224
2372.000000, 54.710926
2373.000000, 54.758148
2374.000000, 54.772305
2375.000000, 54.875450
2376.000000, 54.888706
2377.000000, 54.911167
2378.000000, 54.984875
2379.000000, 54.939270
2380.000000, 54.848606
2381.000000, 54.842846
2382.000000, 54.781281
2383.000000, 54.634846
2384.000000, 54.576416
2385.000000, 54.486458
2386.000000, 54.363804
2387.000000, 54.202301
2388.000000, 54.175735
2389.000000, 54.002518
2390.000000, 53.993286
2391.000000, 53.867638
2392.000000, 53.721191
2393.000000, 53.650208
2394.000000, 53.530182
2395.000000, 53.389275
2396.000000, 53.288033
2397.000000, 53.242237
2398.000000, 53.073055
2399.000000, 52.961391
2400.000000, 52.926815
2401.000000, 52.857624
2402.000000, 52.840679
2403.000000, 52.937645
2404.000000, 53.038651
2405.000000, 53.110634
2406.000000, 53.360218
2407.000000, 53.582764
2408.000000, 53.743404
2409.000000, 54.026295
2410.000000, 54.261417
2411.000000, 54.488987
2412.000000, 54.665684
2413.000000, 54.915493
2414.000000, 54.983013
2415.000000, 55.180973
2416.000000, 55.354565
2417.000000, 55.366188
2418.000000, 55.482738
2419.000000, 55.631874
2420.000000, 55.614906
2421.000000, 55.715351
2422.000000, 55.762577
2423.000000, 55.845375
2424.000000, 55.812347
2425.000000, 55.864788
2426.000000, 55.858475
2427.000000, 55.819874
2428.000000, 55.755955
2429.000000, 55.738712
2430.000000, 55.601978
2431.000000, 55.589043
2432.000000, 55.385174
2433.000000, 55.303837
2434.000000, 55.129719
2435.000000, 54.885494
2436.000000, 54.657345
2437.000000, 54.412521
2438.000000, 54.148304
2439.000000, 53.746212
2440.000000, 53.342415
2441.000000, 52.936054
2442.000000, 52.339756
2443.000000, 51.861103
2444.000000, 51.220680
2445.000000, 50.689774
2446.000000, 50.070171
2447.000000, 49.546524
2448.000000, 48.879848
2449.000000, 48.269878
2450.000000, 47.746998
2451.000000, 47.134842
2452.000000, 46.619938
2453.000000, 46.125824
2454.000000, 45.639763
2455.000000, 45.107956
2456.000000, 44.631256
2457.000000, 44.219440
2458.000000, 43.855923
2459.000000, 43.603149
2460.000000, 43.387447
2461.000000, 43.262093
2462.000000, 43.264225
2463.000000, 43.433697
2464.000000, 43.619843
2465.000000, 43.942081
2466.000000, 44.361675
2467.000000, 44.690159
2468.000000, 45.258175
2469.000000, 45.779190
2470.000000, 46.288559
2471.000000, 46.795341
2472.000000, 47.245087
2473.000000, 47.701656
2474.000000, 48.158218
2475.000000, 48.582718
2476.000000, 48.962406
2477.000000, 49.237640
2478.000000, 49.659927
2479.000000, 49.787731
2480.000000, 49.996273
2481.000000, 50.154400
2482.000000, 50.272106
2483.000000, 50.277351
2484.000000, 50.274975
2485.000000, 50.257851
2486.000000, 50.249172
2487.000000, 50.153500
2488.000000, 50.096096
2489.000000, 50.071175
2490.000000, 49.976269
2491.000000, 49.888905
2492.000000, 49.828350
2493.000000, 49.754860
2494.000000, 49.655960
2495.000000, 49.620674
2496.000000, 49.455284
2497.000000, 49.370708
2498.000000, 49.341076
2499.000000, 49.227898
2500.000000, 49.069965
2501.000000, 48.882000
2502.000000, 48.838135
2503.000000, 48.644604
2504.000000, 48.526360
2505.000000, 48.491608
2506.000000, 48.323421
2507.000000, 48.166801
2508.000000, 48.154202
2509.000000, 48.058300
2510.000000, 48.042458
2511.000000, 48.012085
2512.000000, 48.049397
2513.000000, 48.017742
2514.000000, 48.022736
2515.000000, 48.129967
2516.000000, 48.262890
2517.000000, 48.372894
2518.000000, 48.590580
2519.000000, 48.756802
2520.000000, 48.934174
2521.000000, 49.171597
2522.000000, 49.375652
2523.000000, 49.606369
2524.000000, 49.812950
2525.000000, 50.045197
2526.000000, 50.323940
2527.000000, 50.540340
2528.000000, 50.773407
2529.000000, 51.070995
2530.000000, 51.324951
2531.000000, 51.474899
2532.000000, 51.783882
2533.000000, 51.898026
2534.000000, 52.157295
2535.000000, 52.307083
2536.000000, 52.470253
2537.000000, 52.528782
2538.000000, 52.706253
2539.000000, 52.729298
2540.000000, 52.819530
2541.000000, 52.860809
2542.000000, 52.943439
2543.000000, 52.956261
2544.000000, 53.002930
2545.000000, 52.971287
2546.000000, 52.994370
2547.000000, 52.941292
2548.000000, 52.927845
2549.000000, 52.920681
2550.000000, 52.859539
2551.000000, 52.807625
2552.000000, 52.811508
2553.000000, 52.805805
2554.000000, 52.802509
2555.000000, 52.782799
2556.000000, 52.785919
2557.000000, 52.849693
2558.000000, 52.832584
2559.000000, 52.921463
2560.000000, 52.865990
2561.000000, 52.967541
2562.000000, 53.114868
2563.000000, 53.117645
2564.000000, 53.126381
2565.000000, 53.239719
2566.000000, 53.349106
2567.000000, 53.410713
2568.000000, 53.544586
2569.000000, 53.562592
2570.000000, 53.596592
2571.000000, 53.700607
2572.000000, 53.750343
2573.000000, 53.768669
2574.000000, 53.723068
2575.000000, 53.822708
2576.000000, 53.937656
2577.000000, 53.973709
2578.000000, 54.040344
2579.000000, 54.177094
2580.000000, 54.292797
2581.000000, 54.401745
2582.000000, 54.577244
2583.000000, 54.726280
2584.000000, 54.917274
2585.000000, 55.173378
2586.000000, 55.379391
2587.000000, 55.628162
2588.000000, 55.809357
2589.000000, 56.090164
2590.000000, 56.236778
2591.000000, 56.540443
2592.000000, 56.688328
2593.000000, 56.910385
2594.000000, 57.107376
2595.000000, 57.303356
2596.000000, 57.413761
2597.000000, 57.598293
2598.000000, 57.768120
2599.000000, 57.874321
2600.000000, 57.979870
