# Wavelength  (nm), Transmission (%)
200.000000, 0.068206
201.000000, 0.068430
202.000000, 0.068422
203.000000, 0.067608
204.000000, 0.067144
205.000000, 0.064955
206.000000, 0.066565
207.000000, 0.068406
208.000000, 0.068289
209.000000, 0.066449
210.000000, 0.067367
211.000000, 0.065530
212.000000, 0.063808
213.000000, 0.067021
214.000000, 0.064497
215.000000, 0.064498
216.000000, 0.066560
217.000000, 0.063468
218.000000, 0.063126
219.000000, 0.066672
220.000000, 0.067471
221.000000, 0.067012
222.000000, 0.067124
223.000000, 0.063706
224.000000, 0.064163
225.000000, 0.068139
226.000000, 0.065413
227.000000, 0.065413
228.000000, 0.067336
229.000000, 0.066204
230.000000, 0.063494
231.000000, 0.067556
232.000000, 0.065525
233.000000, 0.064511
234.000000, 0.066651
235.000000, 0.067327
236.000000, 0.063047
237.000000, 0.066314
238.000000, 0.067103
239.000000, 0.066427
240.000000, 0.067331
241.000000, 0.067895
242.000000, 0.064171
243.000000, 0.066994
244.000000, 0.065752
245.000000, 0.065526
246.000000, 0.066430
247.000000, 0.066655
248.000000, 0.064397
249.000000, 0.066542
250.000000, 0.065639
251.000000, 0.064849
252.000000, 0.068231
253.000000, 0.066314
254.000000, 0.061134
255.000000, 0.067664
256.000000, 0.065863
257.000000, 0.064175
258.000000, 0.067997
259.000000, 0.065862
260.000000, 0.062268
261.000000, 0.066311
262.000000, 0.066198
263.000000, 0.063280
264.000000, 0.067208
265.000000, 0.061259
266.000000, 0.061932
267.000000, 0.068107
268.000000, 0.064514
269.000000, 0.062717
270.000000, 0.068444
271.000000, 0.061593
272.000000, 0.063054
273.000000, 0.066648
274.000000, 0.064064
275.000000, 0.062268
276.000000, 0.068667
277.000000, 0.061147
278.000000, 0.061373
279.000000, 0.064515
280.000000, 0.063057
281.000000, 0.063394
282.000000, 0.067541
283.000000, 0.064516
284.000000, 0.062276
285.000000, 0.067316
286.000000, 0.061830
287.000000, 0.063398
288.000000, 0.066530
289.000000, 0.065076
290.000000, 0.066418
291.000000, 0.066194
292.000000, 0.063848
293.000000, 0.063625
294.000000, 0.065747
295.000000, 0.065746
296.000000, 0.062957
297.000000, 0.066862
298.000000, 0.062290
299.000000, 0.063406
300.000000, 0.067416
301.000000, 0.063518
302.000000, 0.062628
303.000000, 0.066636
304.000000, 0.062296
305.000000, 0.063076
306.000000, 0.066856
307.000000, 0.062967
308.000000, 0.061302
309.000000, 0.066077
310.000000, 0.062969
311.000000, 0.062415
312.000000, 0.065633
313.000000, 0.063971
314.000000, 0.061312
315.000000, 0.065854
316.000000, 0.061867
317.000000, 0.064636
318.000000, 0.065189
319.000000, 0.066531
320.000000, 0.063510
321.000000, 0.066307
322.000000, 0.062952
323.000000, 0.064071
324.000000, 0.065859
325.000000, 0.063736
326.000000, 0.062730
327.000000, 0.066082
328.000000, 0.065077
329.000000, 0.063403
330.000000, 0.066639
331.000000, 0.063627
332.000000, 0.062290
333.000000, 0.066972
334.000000, 0.063294
335.000000, 0.063740
336.000000, 0.067416
337.000000, 0.064855
338.000000, 0.065523
339.000000, 0.064187
340.000000, 0.060961
341.000000, 0.063521
342.000000, 0.066301
343.000000, 0.064633
344.000000, 0.063078
345.000000, 0.065300
346.000000, 0.063301
347.000000, 0.063968
348.000000, 0.066299
349.000000, 0.062971
350.000000, 0.061973
351.000000, 0.065189
352.000000, 0.063859
353.000000, 0.063084
354.000000, 0.065632
355.000000, 0.061757
356.000000, 0.062754
357.000000, 0.063640
358.000000, 0.062534
359.000000, 0.063199
360.000000, 0.066184
361.000000, 0.064305
362.000000, 0.063753
363.000000, 0.066736
364.000000, 0.063644
365.000000, 0.064417
366.000000, 0.064417
367.000000, 0.065521
368.000000, 0.061000
369.000000, 0.065300
370.000000, 0.063868
371.000000, 0.065630
372.000000, 0.067832
373.000000, 0.063650
374.000000, 0.061451
375.000000, 0.064970
376.000000, 0.063103
377.000000, 0.063653
378.000000, 0.065080
379.000000, 0.065958
380.000000, 0.063983
381.000000, 0.066287
382.000000, 0.065958
383.000000, 0.065629
384.000000, 0.067382
385.000000, 0.081514
386.000000, 0.110088
387.000000, 0.341598
388.000000, 3.443315
389.000000, 18.615812
390.000000, 49.497785
391.000000, 79.291074
392.000000, 92.166494
393.000000, 94.136694
394.000000, 95.174158
395.000000, 95.910451
396.000000, 96.305183
397.000000, 96.600059
398.000000, 96.511529
399.000000, 96.252421
400.000000, 96.289546
401.000000, 96.484915
402.000000, 96.610965
403.000000, 96.732841
404.000000, 96.664981
405.000000, 96.583426
406.000000, 96.731619
407.000000, 96.859638
408.000000, 97.012116
409.000000, 97.337793
410.000000, 97.026610
411.000000, 96.004270
412.000000, 95.660104
413.000000, 96.208364
414.000000, 96.262024
415.000000, 95.480096
416.000000, 95.381026
417.000000, 96.329991
418.000000, 96.654361
419.000000, 96.264430
420.000000, 96.516663
421.000000, 97.051883
422.000000, 97.167031
423.000000, 97.299955
424.000000, 97.577596
425.000000, 97.452314
426.000000, 97.110057
427.000000, 97.044568
428.000000, 97.088477
429.000000, 97.270334
430.000000, 97.516746
431.000000, 97.410781
432.000000, 97.218635
433.000000, 97.329411
434.000000, 97.144629
435.000000, 96.547766
436.000000, 96.396577
437.000000, 96.935004
438.000000, 97.178627
439.000000, 96.890589
440.000000, 96.849397
441.000000, 96.847960
442.000000, 96.227287
443.000000, 95.587914
444.000000, 95.406698
445.000000, 95.325635
446.000000, 95.332203
447.000000, 95.472807
448.000000, 95.559368
449.000000, 95.964531
450.000000, 96.638661
451.000000, 96.757576
452.000000, 96.362490
453.000000, 95.839494
454.000000, 95.490910
455.000000, 95.858062
456.000000, 96.730603
457.000000, 97.287585
458.000000, 97.311206
459.000000, 97.147342
460.000000, 97.099526
461.000000, 97.243167
462.000000, 97.213600
463.000000, 96.924619
464.000000, 96.626981
465.000000, 96.630230
466.000000, 97.102044
467.000000, 97.680141
468.000000, 97.960648
469.000000, 98.007713
470.000000, 98.010045
471.000000, 98.122952
472.000000, 98.380529
473.000000, 98.613167
474.000000, 98.759025
475.000000, 98.773774
476.000000, 98.489226
477.000000, 98.167783
478.000000, 98.189865
479.000000, 98.442943
480.000000, 98.576922
481.000000, 98.582169
482.000000, 98.681955
483.000000, 98.878169
484.000000, 98.924314
485.000000, 98.735740
486.000000, 98.480925
487.000000, 98.431583
488.000000, 98.506026
489.000000, 98.432088
490.000000, 98.352071
491.000000, 98.482840
492.000000, 98.549051
493.000000, 98.414242
494.000000, 98.409088
495.000000, 98.558544
496.000000, 98.650820
497.000000, 98.670535
498.000000, 98.592084
499.000000, 98.467051
500.000000, 98.569164
501.000000, 98.791422
502.000000, 98.765220
503.000000, 98.616345
504.000000, 98.613205
505.000000, 98.486445
506.000000, 98.207290
507.000000, 98.284460
508.000000, 98.686680
509.000000, 98.873998
510.000000, 98.743466
511.000000, 98.486506
512.000000, 98.325416
513.000000, 98.310841
514.000000, 98.348430
515.000000, 98.370487
516.000000, 98.303433
517.000000, 98.316449
518.000000, 98.562574
519.000000, 98.828544
520.000000, 98.915988
521.000000, 98.859222
522.000000, 98.813400
523.000000, 98.819209
524.000000, 98.812035
525.000000, 98.708337
526.000000, 98.521186
527.000000, 98.327141
528.000000, 98.359391
529.000000, 98.642966
530.000000, 98.926853
531.000000, 99.030223
532.000000, 98.949499
533.000000, 98.800315
534.000000, 98.715810
535.000000, 98.521347
536.000000, 98.299569
537.000000, 98.458727
538.000000, 98.815882
539.000000, 98.927085
540.000000, 98.720479
541.000000, 98.224198
542.000000, 97.779788
543.000000, 97.752986
544.000000, 97.994353
545.000000, 98.355397
546.000000, 98.726529
547.000000, 98.768910
548.000000, 98.606437
549.000000, 98.562910
550.000000, 98.406748
551.000000, 98.047241
552.000000, 97.982599
553.000000, 98.148737
554.000000, 98.357099
555.000000, 98.664904
556.000000, 98.845081
557.000000, 98.760412
558.000000, 98.652305
559.000000, 98.532142
560.000000, 98.370557
561.000000, 98.359896
562.000000, 98.375324
563.000000, 98.219806
564.000000, 97.961746
565.000000, 97.801900
566.000000, 97.872176
567.000000, 98.076133
568.000000, 98.440373
569.000000, 98.789160
570.000000, 98.900536
571.000000, 98.789896
572.000000, 98.466577
573.000000, 98.118663
574.000000, 97.988916
575.000000, 98.013337
576.000000, 98.090631
577.000000, 98.357911
578.000000, 98.710157
579.000000, 98.851786
580.000000, 98.710677
581.000000, 98.392836
582.000000, 98.018862
583.000000, 97.850556
584.000000, 97.973678
585.000000, 98.183634
586.000000, 98.153354
587.000000, 97.889661
588.000000, 97.764133
589.000000, 97.950192
590.000000, 98.304398
591.000000, 98.630197
592.000000, 98.703739
593.000000, 98.450650
594.000000, 98.125924
595.000000, 98.017115
596.000000, 98.178629
597.000000, 98.353755
598.000000, 98.432598
599.000000, 98.207431
600.000000, 97.590042
601.000000, 97.275822
602.000000, 97.683270
603.000000, 98.173933
604.000000, 98.359026
605.000000, 98.375155
606.000000, 98.360040
607.000000, 98.250059
608.000000, 98.277553
609.000000, 98.442437
610.000000, 98.348425
611.000000, 97.615123
612.000000, 96.979027
613.000000, 97.214322
614.000000, 98.137810
615.000000, 98.738059
616.000000, 98.840476
617.000000, 98.749613
618.000000, 98.242029
619.000000, 97.525768
620.000000, 97.379831
621.000000, 97.805873
622.000000, 98.369206
623.000000, 98.736237
624.000000, 98.882147
625.000000, 98.768115
626.000000, 98.098300
627.000000, 97.082383
628.000000, 96.785752
629.000000, 97.478214
630.000000, 98.360738
631.000000, 98.740526
632.000000, 98.811021
633.000000, 98.489072
634.000000, 97.986403
635.000000, 97.704072
636.000000, 97.866562
637.000000, 98.434767
638.000000, 98.845808
639.000000, 98.730649
640.000000, 98.448572
641.000000, 98.199101
642.000000, 97.864508
643.000000, 97.694518
644.000000, 97.958212
645.000000, 98.063224
646.000000, 97.695010
647.000000, 97.132375
648.000000, 96.929870
649.000000, 97.358556
650.000000, 98.186567
651.000000, 98.791409
652.000000, 98.961668
653.000000, 98.654033
654.000000, 97.787174
655.000000, 97.387256
656.000000, 97.918805
657.000000, 98.695743
658.000000, 98.870398
659.000000, 98.628548
660.000000, 98.400609
661.000000, 98.462320
662.000000, 98.374816
663.000000, 97.914366
664.000000, 97.865010
665.000000, 98.430697
666.000000, 99.032221
667.000000, 99.272295
668.000000, 99.077490
669.000000, 98.533142
670.000000, 97.997676
671.000000, 97.980260
672.000000, 98.301192
673.000000, 98.309079
674.000000, 97.537119
675.000000, 96.350509
676.000000, 96.208747
677.000000, 97.328750
678.000000, 98.535495
679.000000, 98.916880
680.000000, 98.524237
681.000000, 97.888740
682.000000, 97.857770
683.000000, 98.427985
684.000000, 98.567419
685.000000, 97.808730
686.000000, 97.078045
687.000000, 97.485103
688.000000, 98.009430
689.000000, 97.134635
690.000000, 95.579126
691.000000, 95.814995
692.000000, 97.408226
693.000000, 98.167100
694.000000, 97.530671
695.000000, 96.233592
696.000000, 85.539556
697.000000, 53.943105
698.000000, 17.727202
699.000000, 1.982169
700.000000, 0.195182
701.000000, 0.087081
702.000000, 0.038634
703.000000, 0.006529
704.000000, 0.000905
705.000000, 0.000944
706.000000, 0.000896
707.000000, 0.000921
708.000000, 0.000880
709.000000, 0.000870
710.000000, 0.000884
711.000000, 0.000908
712.000000, 0.000901
713.000000, 0.000936
714.000000, 0.000926
715.000000, 0.000920
716.000000, 0.000991
717.000000, 0.000942
718.000000, 0.000914
719.000000, 0.000920
720.000000, 0.000890
721.000000, 0.000876
722.000000, 0.000901
723.000000, 0.000913
724.000000, 0.000908
725.000000, 0.000932
726.000000, 0.000890
727.000000, 0.000888
728.000000, 0.000892
729.000000, 0.000904
730.000000, 0.000904
731.000000, 0.000927
732.000000, 0.000883
733.000000, 0.000883
734.000000, 0.000899
735.000000, 0.000917
736.000000, 0.000891
737.000000, 0.000951
738.000000, 0.000885
739.000000, 0.000898
740.000000, 0.000904
741.000000, 0.000895
742.000000, 0.000895
743.000000, 0.000921
744.000000, 0.000879
745.000000, 0.000882
746.000000, 0.000892
747.000000, 0.000923
748.000000, 0.000910
749.000000, 0.000939
750.000000, 0.000904
751.000000, 0.000899
752.000000, 0.000908
753.000000, 0.000882
754.000000, 0.000881
755.000000, 0.000961
756.000000, 0.000908
757.000000, 0.000882
758.000000, 0.000910
759.000000, 0.000904
760.000000, 0.000901
761.000000, 0.000948
762.000000, 0.000888
763.000000, 0.000898
764.000000, 0.000923
765.000000, 0.000913
766.000000, 0.000901
767.000000, 0.000948
768.000000, 0.000881
769.000000, 0.000879
770.000000, 0.000905
771.000000, 0.000904
772.000000, 0.000887
773.000000, 0.000945
774.000000, 0.000903
775.000000, 0.000900
776.000000, 0.000933
777.000000, 0.000923
778.000000, 0.000924
779.000000, 0.000935
780.000000, 0.000920
781.000000, 0.000897
782.000000, 0.000914
783.000000, 0.000872
784.000000, 0.000897
785.000000, 0.000962
786.000000, 0.000914
787.000000, 0.000900
788.000000, 0.000903
789.000000, 0.000871
790.000000, 0.000927
791.000000, 0.000943
792.000000, 0.000898
793.000000, 0.000913
794.000000, 0.000911
795.000000, 0.000872
796.000000, 0.000920
797.000000, 0.000943
798.000000, 0.000898
799.000000, 0.000898
800.000000, 0.000907
801.000000, 0.000894
802.000000, 0.000924
803.000000, 0.000947
804.000000, 0.000917
805.000000, 0.000920
806.000000, 0.000913
807.000000, 0.000877
808.000000, 0.000906
809.000000, 0.000924
810.000000, 0.000903
811.000000, 0.000923
812.000000, 0.000946
813.000000, 0.000907
814.000000, 0.000894
815.000000, 0.000904
816.000000, 0.000913
817.000000, 0.000914
818.000000, 0.000909
819.000000, 0.000881
820.000000, 0.000894
821.000000, 0.000909
822.000000, 0.000913
823.000000, 0.000924
824.000000, 0.000937
825.000000, 0.000913
826.000000, 0.000917
827.000000, 0.000898
828.000000, 0.000897
829.000000, 0.000927
830.000000, 0.000937
831.000000, 0.000936
832.000000, 0.000942
833.000000, 0.000919
834.000000, 0.000919
835.000000, 0.000924
836.000000, 0.000939
837.000000, 0.000936
838.000000, 0.000945
839.000000, 0.000911
840.000000, 0.000903
841.000000, 0.000937
842.000000, 0.000953
843.000000, 0.000948
844.000000, 0.000942
845.000000, 0.000910
846.000000, 0.000903
847.000000, 0.000937
848.000000, 0.000942
849.000000, 0.000916
850.000000, 0.000920
851.000000, 0.000903
852.000000, 0.000900
853.000000, 0.000929
854.000000, 0.000933
855.000000, 0.000926
856.000000, 0.000911
857.000000, 0.000869
858.000000, 0.000856
859.000000, 0.000914
860.000000, 0.000969
861.000000, 0.000928
862.000000, 0.000920
863.000000, 0.000922
864.000000, 0.000938
865.000000, 0.000921
866.000000, 0.000894
867.000000, 0.000906
868.000000, 0.000910
869.000000, 0.000931
870.000000, 0.000983
871.000000, 0.000987
872.000000, 0.000927
873.000000, 0.000877
874.000000, 0.000869
875.000000, 0.000883
876.000000, 0.000924
877.000000, 0.000952
878.000000, 0.000951
879.000000, 0.000943
880.000000, 0.000930
881.000000, 0.000916
882.000000, 0.000907
883.000000, 0.000912
884.000000, 0.000923
885.000000, 0.000941
886.000000, 0.000949
887.000000, 0.000933
888.000000, 0.000893
889.000000, 0.000882
890.000000, 0.000927
891.000000, 0.000961
892.000000, 0.000944
893.000000, 0.000895
894.000000, 0.000895
895.000000, 0.000932
896.000000, 0.000956
897.000000, 0.000951
898.000000, 0.000904
899.000000, 0.000883
900.000000, 0.000918
901.000000, 0.000956
902.000000, 0.000944
903.000000, 0.000905
904.000000, 0.000895
905.000000, 0.000932
906.000000, 0.000957
907.000000, 0.000940
908.000000, 0.000908
909.000000, 0.000899
910.000000, 0.000942
911.000000, 0.000954
912.000000, 0.000906
913.000000, 0.000890
914.000000, 0.000940
915.000000, 0.000954
916.000000, 0.000909
917.000000, 0.000901
918.000000, 0.000917
919.000000, 0.000914
920.000000, 0.000929
921.000000, 0.000949
922.000000, 0.000950
923.000000, 0.000897
924.000000, 0.000893
925.000000, 0.000942
926.000000, 0.000958
927.000000, 0.000926
928.000000, 0.000882
929.000000, 0.000896
930.000000, 0.000935
931.000000, 0.000952
932.000000, 0.000942
933.000000, 0.000903
934.000000, 0.000913
935.000000, 0.000940
936.000000, 0.000941
937.000000, 0.000893
938.000000, 0.000895
939.000000, 0.000946
940.000000, 0.000952
941.000000, 0.000935
942.000000, 0.000914
943.000000, 0.000909
944.000000, 0.000923
945.000000, 0.000937
946.000000, 0.000945
947.000000, 0.000952
948.000000, 0.000953
949.000000, 0.000942
950.000000, 0.000907
951.000000, 0.000886
952.000000, 0.000934
953.000000, 0.000937
954.000000, 0.000896
955.000000, 0.000925
956.000000, 0.000947
957.000000, 0.000942
958.000000, 0.000904
959.000000, 0.000927
960.000000, 0.000948
961.000000, 0.000946
962.000000, 0.000937
963.000000, 0.000905
964.000000, 0.000948
965.000000, 0.000933
966.000000, 0.000899
967.000000, 0.000934
968.000000, 0.000935
969.000000, 0.000903
970.000000, 0.000936
971.000000, 0.000950
972.000000, 0.000902
973.000000, 0.000923
974.000000, 0.000933
975.000000, 0.000953
976.000000, 0.000942
977.000000, 0.000954
978.000000, 0.000948
979.000000, 0.000901
980.000000, 0.000926
981.000000, 0.000934
982.000000, 0.000940
983.000000, 0.000938
984.000000, 0.000953
985.000000, 0.000942
986.000000, 0.000899
987.000000, 0.000942
988.000000, 0.000942
989.000000, 0.000927
990.000000, 0.000888
991.000000, 0.000937
992.000000, 0.000964
993.000000, 0.000951
994.000000, 0.000925
995.000000, 0.000894
996.000000, 0.000935
997.000000, 0.000963
998.000000, 0.000949
999.000000, 0.000899
1000.000000, 0.000907
1001.000000, 0.000959
1002.000000, 0.000959
1003.000000, 0.000939
1004.000000, 0.000867
1005.000000, 0.000870
1006.000000, 0.000949
1007.000000, 0.000969
1008.000000, 0.000961
1009.000000, 0.000939
1010.000000, 0.000872
1011.000000, 0.000873
1012.000000, 0.000932
1013.000000, 0.000954
1014.000000, 0.000975
1015.000000, 0.000948
1016.000000, 0.000897
1017.000000, 0.000929
1018.000000, 0.000950
1019.000000, 0.000940
1020.000000, 0.000944
1021.000000, 0.000931
1022.000000, 0.000879
1023.000000, 0.000928
1024.000000, 0.000942
1025.000000, 0.000937
1026.000000, 0.000942
1027.000000, 0.000929
1028.000000, 0.000886
1029.000000, 0.000939
1030.000000, 0.000948
1031.000000, 0.000950
1032.000000, 0.000948
1033.000000, 0.000931
1034.000000, 0.000864
1035.000000, 0.000889
1036.000000, 0.000956
1037.000000, 0.000952
1038.000000, 0.000954
1039.000000, 0.000948
1040.000000, 0.000947
1041.000000, 0.000919
1042.000000, 0.000852
1043.000000, 0.000874
1044.000000, 0.000939
1045.000000, 0.000940
1046.000000, 0.000942
1047.000000, 0.000949
1048.000000, 0.000946
1049.000000, 0.000934
1050.000000, 0.000885
1051.000000, 0.000919
1052.000000, 0.000929
1053.000000, 0.000932
1054.000000, 0.000926
1055.000000, 0.000929
1056.000000, 0.000951
1057.000000, 0.000947
1058.000000, 0.000940
1059.000000, 0.000868
1060.000000, 0.000929
1061.000000, 0.000916
1062.000000, 0.000927
1063.000000, 0.000920
1064.000000, 0.000939
1065.000000, 0.000950
1066.000000, 0.000930
1067.000000, 0.000956
1068.000000, 0.000994
1069.000000, 0.000916
1070.000000, 0.000917
1071.000000, 0.000934
1072.000000, 0.000948
1073.000000, 0.000933
1074.000000, 0.000922
1075.000000, 0.000925
1076.000000, 0.000917
1077.000000, 0.000918
1078.000000, 0.000935
1079.000000, 0.000940
1080.000000, 0.000946
1081.000000, 0.000926
1082.000000, 0.000939
1083.000000, 0.000923
1084.000000, 0.000923
1085.000000, 0.000907
1086.000000, 0.000863
1087.000000, 0.000931
1088.000000, 0.000940
1089.000000, 0.000919
1090.000000, 0.000926
1091.000000, 0.000924
1092.000000, 0.000925
1093.000000, 0.000939
1094.000000, 0.000996
1095.000000, 0.000953
1096.000000, 0.000938
1097.000000, 0.000926
1098.000000, 0.000925
1099.000000, 0.000913
1100.000000, 0.000916
1101.000000, 0.000913
1102.000000, 0.000933
1103.000000, 0.000949
1104.000000, 0.000925
1105.000000, 0.000928
1106.000000, 0.000922
1107.000000, 0.000914
1108.000000, 0.000924
1109.000000, 0.000922
1110.000000, 0.000931
1111.000000, 0.000945
1112.000000, 0.000954
1113.000000, 0.000961
1114.000000, 0.000913
1115.000000, 0.000918
1116.000000, 0.000933
1117.000000, 0.000935
1118.000000, 0.000947
1119.000000, 0.000921
1120.000000, 0.000935
1121.000000, 0.000924
1122.000000, 0.000928
1123.000000, 0.000924
1124.000000, 0.000932
1125.000000, 0.000943
1126.000000, 0.000947
1127.000000, 0.000932
1128.000000, 0.000914
1129.000000, 0.000884
1130.000000, 0.000938
1131.000000, 0.000946
1132.000000, 0.000946
1133.000000, 0.000928
1134.000000, 0.000877
1135.000000, 0.000922
1136.000000, 0.000944
1137.000000, 0.000968
1138.000000, 0.000905
1139.000000, 0.000857
1140.000000, 0.000891
1141.000000, 0.000921
1142.000000, 0.000935
1143.000000, 0.000928
1144.000000, 0.000935
1145.000000, 0.000930
1146.000000, 0.000931
1147.000000, 0.000944
1148.000000, 0.000946
1149.000000, 0.000928
1150.000000, 0.000932
1151.000000, 0.000939
1152.000000, 0.000929
1153.000000, 0.000941
1154.000000, 0.000934
1155.000000, 0.000916
1156.000000, 0.000881
1157.000000, 0.000921
1158.000000, 0.000926
1159.000000, 0.000922
1160.000000, 0.000920
1161.000000, 0.000923
1162.000000, 0.000941
1163.000000, 0.000946
1164.000000, 0.000933
1165.000000, 0.000918
1166.000000, 0.000924
1167.000000, 0.000924
1168.000000, 0.000920
1169.000000, 0.000939
1170.000000, 0.000973
1171.000000, 0.000980
1172.000000, 0.000920
1173.000000, 0.000914
1174.000000, 0.000912
1175.000000, 0.000924
1176.000000, 0.000930
1177.000000, 0.000933
1178.000000, 0.000937
1179.000000, 0.000937
1180.000000, 0.000924
1181.000000, 0.000927
1182.000000, 0.000918
1183.000000, 0.000917
1184.000000, 0.000925
1185.000000, 0.000924
1186.000000, 0.000940
1187.000000, 0.000937
1188.000000, 0.000921
1189.000000, 0.000927
1190.000000, 0.000937
1191.000000, 0.000922
1192.000000, 0.000923
1193.000000, 0.000929
1194.000000, 0.000926
1195.000000, 0.000926
1196.000000, 0.000927
1197.000000, 0.000934
1198.000000, 0.000944
1199.000000, 0.000959
1200.000000, 0.000958
1201.000000, 0.000916
1202.000000, 0.000919
1203.000000, 0.000910
1204.000000, 0.000919
1205.000000, 0.000960
1206.000000, 0.000941
1207.000000, 0.000903
1208.000000, 0.000900
1209.000000, 0.000920
1210.000000, 0.000919
1211.000000, 0.000923
1212.000000, 0.000929
1213.000000, 0.000940
1214.000000, 0.000944
1215.000000, 0.000931
1216.000000, 0.000933
1217.000000, 0.000937
1218.000000, 0.000932
1219.000000, 0.000937
1220.000000, 0.000937
1221.000000, 0.000916
1222.000000, 0.000915
1223.000000, 0.000951
1224.000000, 0.000958
1225.000000, 0.000958
1226.000000, 0.000947
1227.000000, 0.000944
1228.000000, 0.000940
1229.000000, 0.000938
1230.000000, 0.000935
1231.000000, 0.000931
1232.000000, 0.000927
1233.000000, 0.000926
1234.000000, 0.000929
1235.000000, 0.000940
1236.000000, 0.000941
1237.000000, 0.000924
1238.000000, 0.001894
1239.000000, 0.006766
1240.000000, 0.030067
1241.000000, 0.071849
1242.000000, 0.077752
1243.000000, 0.076355
1244.000000, 0.081077
1245.000000, 0.095349
1246.000000, 0.108333
1247.000000, 0.096001
1248.000000, 0.075931
1249.000000, 0.084413
1250.000000, 0.087098
1251.000000, 0.079907
1252.000000, 0.065300
1253.000000, 0.025117
1254.000000, 0.004060
1255.000000, 0.042637
1256.000000, 0.079690
1257.000000, 0.082914
1258.000000, 0.076686
1259.000000, 0.067233
1260.000000, 0.074964
1261.000000, 0.079583
1262.000000, 0.073356
1263.000000, 0.097634
1264.000000, 0.122652
1265.000000, 0.106107
1266.000000, 0.086349
1267.000000, 0.079264
1268.000000, 0.066804
1269.000000, 0.050688
1270.000000, 0.071529
1271.000000, 0.087744
1272.000000, 0.094725
1273.000000, 0.106968
1274.000000, 0.118572
1275.000000, 0.132754
1276.000000, 0.146283
1277.000000, 0.163038
1278.000000, 0.168739
1279.000000, 0.152940
1280.000000, 0.152612
1281.000000, 0.118912
1282.000000, 0.087544
1283.000000, 0.090766
1284.000000, 0.110538
1285.000000, 0.135569
1286.000000, 0.138565
1287.000000, 0.136413
1288.000000, 0.147154
1289.000000, 0.145004
1290.000000, 0.112043
1291.000000, 0.102702
1292.000000, 0.108827
1293.000000, 0.137303
1294.000000, 0.176630
1295.000000, 0.191156
1296.000000, 0.209119
1297.000000, 0.227627
1298.000000, 0.253435
1299.000000, 0.307510
1300.000000, 0.336242
1301.000000, 0.320480
1302.000000, 0.287198
1303.000000, 0.271745
1304.000000, 0.273135
1305.000000, 0.282871
1306.000000, 0.295530
1307.000000, 0.339153
1308.000000, 0.388637
1309.000000, 0.428343
1310.000000, 0.504484
1311.000000, 0.614623
1312.000000, 0.760417
1313.000000, 0.961935
1314.000000, 1.309639
1315.000000, 1.944870
1316.000000, 2.969406
1317.000000, 4.529055
1318.000000, 6.690276
1319.000000, 9.092472
1320.000000, 10.912747
1321.000000, 11.693552
1322.000000, 11.667765
1323.000000, 11.458440
1324.000000, 11.620776
1325.000000, 12.508531
1326.000000, 14.243285
1327.000000, 17.539665
1328.000000, 22.395859
1329.000000, 28.763505
1330.000000, 35.495744
1331.000000, 40.214383
1332.000000, 40.997789
1333.000000, 37.948846
1334.000000, 33.124415
1335.000000, 28.424525
1336.000000, 24.973827
1337.000000, 22.952091
1338.000000, 22.261730
1339.000000, 22.798811
1340.000000, 24.403821
1341.000000, 27.477052
1342.000000, 31.559482
1343.000000, 36.246038
1344.000000, 40.487774
1345.000000, 42.525121
1346.000000, 41.498846
1347.000000, 37.301889
1348.000000, 31.940277
1349.000000, 26.671861
1350.000000, 22.332874
1351.000000, 19.238380
1352.000000, 17.245611
1353.000000, 16.041742
1354.000000, 15.554269
1355.000000, 15.770582
1356.000000, 16.625715
1357.000000, 18.420409
1358.000000, 21.211115
1359.000000, 25.321534
1360.000000, 31.010699
1361.000000, 39.404878
1362.000000, 50.255526
1363.000000, 61.896253
1364.000000, 72.920161
1365.000000, 78.705990
1366.000000, 77.395780
1367.000000, 69.874543
1368.000000, 61.009857
1369.000000, 53.463330
1370.000000, 47.242716
1371.000000, 42.873106
1372.000000, 40.570974
1373.000000, 39.791767
1374.000000, 40.378012
1375.000000, 42.288646
1376.000000, 45.391341
1377.000000, 49.844646
1378.000000, 55.308762
1379.000000, 61.979219
1380.000000, 69.147252
1381.000000, 75.839220
1382.000000, 81.400484
1383.000000, 85.066025
1384.000000, 86.363912
1385.000000, 85.577026
1386.000000, 83.234289
1387.000000, 80.314794
1388.000000, 77.808756
1389.000000, 75.861341
1390.000000, 74.489975
1391.000000, 73.293680
1392.000000, 72.073740
1393.000000, 70.176572
1394.000000, 67.042629
1395.000000, 61.936240
1396.000000, 56.443980
1397.000000, 50.358090
1398.000000, 43.121551
1399.000000, 36.770698
1400.000000, 31.932763
1401.000000, 28.010930
1402.000000, 24.601652
1403.000000, 21.633002
1404.000000, 19.666073
1405.000000, 18.415079
1406.000000, 17.628883
1407.000000, 17.160826
1408.000000, 17.074098
1409.000000, 17.344663
1410.000000, 17.956273
1411.000000, 19.090228
1412.000000, 20.828195
1413.000000, 22.943068
1414.000000, 25.901922
1415.000000, 29.668561
1416.000000, 34.346126
1417.000000, 41.133846
1418.000000, 48.297748
1419.000000, 56.939322
1420.000000, 65.590552
1421.000000, 73.922141
1422.000000, 79.965538
1423.000000, 82.866718
1424.000000, 82.376049
1425.000000, 79.343909
1426.000000, 75.194707
1427.000000, 70.115731
1428.000000, 66.180208
1429.000000, 63.083542
1430.000000, 61.124445
1431.000000, 60.257695
1432.000000, 60.515150
1433.000000, 61.793384
1434.000000, 63.918900
1435.000000, 66.940399
1436.000000, 70.303185
1437.000000, 73.770839
1438.000000, 76.975376
1439.000000, 79.495188
1440.000000, 80.775364
1441.000000, 80.724303
1442.000000, 79.534215
1443.000000, 77.139588
1444.000000, 74.259004
1445.000000, 71.315769
1446.000000, 68.725516
1447.000000, 66.514719
1448.000000, 64.886225
1449.000000, 64.039911
1450.000000, 63.893711
1451.000000, 64.384171
1452.000000, 65.741859
1453.000000, 67.725638
1454.000000, 70.115275
1455.000000, 72.921603
1456.000000, 75.821029
1457.000000, 78.548317
1458.000000, 80.792102
1459.000000, 82.204981
1460.000000, 82.650129
1461.000000, 82.008265
1462.000000, 80.453363
1463.000000, 78.049408
1464.000000, 75.197506
1465.000000, 72.277945
1466.000000, 69.536170
1467.000000, 67.004068
1468.000000, 65.174107
1469.000000, 63.813999
1470.000000, 63.206347
1471.000000, 63.286720
1472.000000, 64.069647
1473.000000, 65.551733
1474.000000, 67.546951
1475.000000, 70.169132
1476.000000, 73.052302
1477.000000, 76.047399
1478.000000, 78.731991
1479.000000, 81.200958
1480.000000, 82.595729
1481.000000, 82.917265
1482.000000, 81.945662
1483.000000, 79.917538
1484.000000, 77.006549
1485.000000, 73.628386
1486.000000, 70.226100
1487.000000, 66.827227
1488.000000, 63.864801
1489.000000, 61.383393
1490.000000, 59.444128
1491.000000, 58.098253
1492.000000, 57.387141
1493.000000, 57.293284
1494.000000, 57.781839
1495.000000, 58.846171
1496.000000, 60.450800
1497.000000, 62.499366
1498.000000, 65.151858
1499.000000, 68.211158
1500.000000, 71.498352
1501.000000, 74.996768
1502.000000, 78.172249
1503.000000, 81.037487
1504.000000, 83.263477
1505.000000, 84.553830
1506.000000, 84.885600
1507.000000, 84.295043
1508.000000, 82.924085
1509.000000, 80.941085
1510.000000, 78.649681
1511.000000, 76.296947
1512.000000, 74.093846
1513.000000, 72.148715
1514.000000, 70.749114
1515.000000, 69.731018
1516.000000, 69.309668
1517.000000, 69.471926
1518.000000, 70.121307
1519.000000, 71.310851
1520.000000, 72.889792
1521.000000, 74.803001
1522.000000, 76.998049
1523.000000, 79.224176
1524.000000, 81.367517
1525.000000, 83.222596
1526.000000, 84.591108
1527.000000, 85.386035
1528.000000, 85.521286
1529.000000, 85.020672
1530.000000, 83.957974
1531.000000, 82.488758
1532.000000, 80.772401
1533.000000, 78.925920
1534.000000, 77.175819
1535.000000, 75.592837
1536.000000, 74.274499
1537.000000, 73.331285
1538.000000, 72.785575
1539.000000, 72.654691
1540.000000, 72.954638
1541.000000, 73.744522
1542.000000, 74.928050
1543.000000, 76.471879
1544.000000, 78.320934
1545.000000, 80.320563
1546.000000, 82.346953
1547.000000, 84.236604
1548.000000, 85.771582
1549.000000, 86.810665
1550.000000, 87.183440
1551.000000, 86.829804
1552.000000, 85.747573
1553.000000, 83.971212
1554.000000, 81.675172
1555.000000, 78.988899
1556.000000, 76.212434
1557.000000, 73.468951
1558.000000, 70.941168
1559.000000, 68.715973
1560.000000, 66.867757
1561.000000, 65.489396
1562.000000, 64.629911
1563.000000, 64.280678
1564.000000, 64.414421
1565.000000, 65.026490
1566.000000, 66.137608
1567.000000, 67.834504
1568.000000, 69.889884
1569.000000, 72.273102
1570.000000, 74.948902
1571.000000, 77.925077
1572.000000, 80.806396
1573.000000, 83.542746
1574.000000, 85.864488
1575.000000, 87.604054
1576.000000, 88.616129
1577.000000, 88.781766
1578.000000, 88.094797
1579.000000, 86.635549
1580.000000, 84.452382
1581.000000, 81.756430
1582.000000, 78.895044
1583.000000, 75.911088
1584.000000, 72.995180
1585.000000, 70.249161
1586.000000, 67.853684
1587.000000, 65.805782
1588.000000, 64.296401
1589.000000, 63.196459
1590.000000, 62.579985
1591.000000, 62.422784
1592.000000, 62.727976
1593.000000, 63.508590
1594.000000, 64.764228
1595.000000, 66.441007
1596.000000, 68.492237
1597.000000, 70.995617
1598.000000, 73.764395
1599.000000, 76.777010
1600.000000, 79.874782
1601.000000, 82.994155
1602.000000, 85.915544
1603.000000, 88.520775
1604.000000, 90.595439
1605.000000, 92.108161
1606.000000, 92.989135
1607.000000, 93.276977
1608.000000, 93.006492
1609.000000, 92.258982
1610.000000, 91.173809
1611.000000, 89.927927
1612.000000, 88.620294
1613.000000, 87.335857
1614.000000, 86.212366
1615.000000, 85.264960
1616.000000, 84.561951
1617.000000, 84.130317
1618.000000, 83.995937
1619.000000, 84.171414
1620.000000, 84.643177
1621.000000, 85.339062
1622.000000, 86.217067
1623.000000, 87.256614
1624.000000, 88.371131
1625.000000, 89.456561
1626.000000, 90.458524
1627.000000, 91.271671
1628.000000, 91.794554
1629.000000, 91.998071
1630.000000, 91.806555
1631.000000, 91.220137
1632.000000, 90.245286
1633.000000, 88.971504
1634.000000, 87.469259
1635.000000, 85.803996
1636.000000, 84.096930
1637.000000, 82.476952
1638.000000, 80.937943
1639.000000, 79.546833
1640.000000, 78.408358
1641.000000, 77.569062
1642.000000, 77.077322
1643.000000, 76.912593
1644.000000, 77.072133
1645.000000, 77.528457
1646.000000, 78.341428
1647.000000, 79.456940
1648.000000, 80.815207
1649.000000, 82.406548
1650.000000, 84.136033
1651.000000, 85.887887
1652.000000, 87.717519
1653.000000, 89.443820
1654.000000, 90.939047
1655.000000, 92.178991
1656.000000, 93.067891
1657.000000, 93.502457
1658.000000, 93.461726
1659.000000, 92.981612
1660.000000, 92.056711
1661.000000, 90.739629
1662.000000, 89.111180
1663.000000, 87.266829
1664.000000, 85.318026
1665.000000, 83.405232
1666.000000, 81.514362
1667.000000, 79.753341
1668.000000, 78.194073
1669.000000, 76.935623
1670.000000, 75.953809
1671.000000, 75.232228
1672.000000, 74.854780
1673.000000, 74.816698
1674.000000, 75.085101
1675.000000, 75.656003
1676.000000, 76.534392
1677.000000, 77.650416
1678.000000, 78.935897
1679.000000, 80.427444
1680.000000, 82.035640
1681.000000, 83.628817
1682.000000, 85.172769
1683.000000, 86.580659
1684.000000, 87.800616
1685.000000, 88.695536
1686.000000, 89.229250
1687.000000, 89.386280
1688.000000, 89.155538
1689.000000, 88.588960
1690.000000, 87.726179
1691.000000, 86.650595
1692.000000, 85.397151
1693.000000, 84.060605
1694.000000, 82.688145
1695.000000, 81.346594
1696.000000, 80.137247
1697.000000, 79.107085
1698.000000, 78.286066
1699.000000, 77.679218
1700.000000, 77.323705
1701.000000, 77.225704
1702.000000, 77.397866
1703.000000, 77.858351
1704.000000, 78.602428
1705.000000, 79.577032
1706.000000, 80.821953
1707.000000, 82.256103
1708.000000, 83.837054
1709.000000, 85.507603
1710.000000, 87.144377
1711.000000, 88.631061
1712.000000, 89.985629
1713.000000, 91.045193
1714.000000, 91.754436
1715.000000, 92.028677
1716.000000, 91.794606
1717.000000, 91.085538
1718.000000, 89.907179
1719.000000, 88.378135
1720.000000, 86.476767
1721.000000, 84.426557
1722.000000, 82.273857
1723.000000, 80.111636
1724.000000, 78.056883
1725.000000, 76.153582
1726.000000, 74.370768
1727.000000, 72.886910
1728.000000, 71.689147
1729.000000, 70.778555
1730.000000, 70.163307
1731.000000, 69.841169
1732.000000, 69.869793
1733.000000, 70.199211
1734.000000, 70.853152
1735.000000, 71.793459
1736.000000, 73.021452
1737.000000, 74.472403
1738.000000, 76.223516
1739.000000, 78.076955
1740.000000, 80.128776
1741.000000, 82.133234
1742.000000, 84.131722
1743.000000, 86.010420
1744.000000, 87.651324
1745.000000, 88.884540
1746.000000, 89.669446
1747.000000, 89.862500
1748.000000, 89.437417
1749.000000, 88.392807
1750.000000, 86.757258
1751.000000, 84.678339
1752.000000, 82.153746
1753.000000, 79.488270
1754.000000, 76.621522
1755.000000, 73.793175
1756.000000, 71.044007
1757.000000, 68.478839
1758.000000, 66.043268
1759.000000, 63.947217
1760.000000, 62.116801
1761.000000, 60.698236
1762.000000, 59.563752
1763.000000, 58.749559
1764.000000, 58.283553
1765.000000, 58.082357
1766.000000, 58.227282
1767.000000, 58.695512
1768.000000, 59.464102
1769.000000, 60.554939
1770.000000, 61.935908
1771.000000, 63.574075
1772.000000, 65.554973
1773.000000, 67.690297
1774.000000, 70.047815
1775.000000, 72.582470
1776.000000, 75.052447
1777.000000, 77.521656
1778.000000, 80.000727
1779.000000, 82.115861
1780.000000, 83.930155
1781.000000, 85.258988
1782.000000, 86.069494
1783.000000, 86.270733
1784.000000, 85.736890
1785.000000, 84.652500
1786.000000, 82.996768
1787.000000, 80.788282
1788.000000, 78.282752
1789.000000, 75.589727
1790.000000, 72.917621
1791.000000, 70.126716
1792.000000, 67.491400
1793.000000, 65.108465
1794.000000, 62.899996
1795.000000, 60.985685
1796.000000, 59.333759
1797.000000, 57.989342
1798.000000, 56.844946
1799.000000, 56.105261
1800.000000, 55.655211
1801.000000, 55.501512
1802.000000, 55.674341
1803.000000, 56.120461
1804.000000, 56.770978
1805.000000, 57.728681
1806.000000, 59.026020
1807.000000, 60.541242
1808.000000, 62.318692
1809.000000, 64.313476
1810.000000, 66.522283
1811.000000, 68.657223
1812.000000, 71.021674
1813.000000, 73.556585
1814.000000, 75.997332
1815.000000, 78.354143
1816.000000, 80.440389
1817.000000, 82.237752
1818.000000, 83.749684
1819.000000, 84.704990
1820.000000, 85.238026
1821.000000, 85.243810
1822.000000, 84.728095
1823.000000, 83.741202
1824.000000, 82.264681
1825.000000, 80.614073
1826.000000, 78.827536
1827.000000, 76.987551
1828.000000, 75.042252
1829.000000, 72.917252
1830.000000, 70.906446
1831.000000, 69.091725
1832.000000, 67.473973
1833.000000, 66.085707
1834.000000, 64.922602
1835.000000, 64.059994
1836.000000, 63.470460
1837.000000, 63.208232
1838.000000, 63.179400
1839.000000, 63.411124
1840.000000, 63.912609
1841.000000, 64.557971
1842.000000, 65.599825
1843.000000, 66.810304
1844.000000, 68.452292
1845.000000, 70.004203
1846.000000, 71.565992
1847.000000, 73.053746
1848.000000, 74.924879
1849.000000, 76.948806
1850.000000, 79.303096
1851.000000, 81.444345
1852.000000, 83.125306
1853.000000, 84.264810
1854.000000, 85.233968
1855.000000, 86.013297
1856.000000, 86.420187
1857.000000, 86.441423
1858.000000, 86.030590
1859.000000, 85.299651
1860.000000, 84.180014
1861.000000, 82.830179
1862.000000, 81.182171
1863.000000, 79.358646
1864.000000, 77.431694
1865.000000, 75.706072
1866.000000, 73.921417
1867.000000, 72.344461
1868.000000, 70.758899
1869.000000, 69.298902
1870.000000, 67.994363
1871.000000, 66.858758
1872.000000, 65.895581
1873.000000, 65.131423
1874.000000, 64.665442
1875.000000, 64.394216
1876.000000, 64.406536
1877.000000, 64.615350
1878.000000, 65.062759
1879.000000, 65.715490
1880.000000, 66.607137
1881.000000, 67.691505
1882.000000, 68.904149
1883.000000, 70.229201
1884.000000, 71.821044
1885.000000, 73.433379
1886.000000, 75.241104
1887.000000, 77.052437
1888.000000, 78.824477
1889.000000, 80.409575
1890.000000, 81.876828
1891.000000, 83.175084
1892.000000, 84.409311
1893.000000, 85.354605
1894.000000, 86.139943
1895.000000, 86.565189
1896.000000, 86.648916
1897.000000, 86.412118
1898.000000, 85.953597
1899.000000, 85.309712
1900.000000, 84.408707
1901.000000, 83.306659
1902.000000, 82.001567
1903.000000, 80.614057
1904.000000, 79.189964
1905.000000, 77.874028
1906.000000, 76.551120
1907.000000, 75.405321
1908.000000, 74.204573
1909.000000, 73.151775
1910.000000, 72.230754
1911.000000, 71.567394
1912.000000, 71.073246
1913.000000, 70.799401
1914.000000, 70.680463
1915.000000, 70.734733
1916.000000, 70.960248
1917.000000, 71.384995
1918.000000, 71.919573
1919.000000, 72.557956
1920.000000, 73.418441
1921.000000, 74.490757
1922.000000, 75.667503
1923.000000, 77.001258
1924.000000, 78.384189
1925.000000, 79.797504
1926.000000, 81.132078
1927.000000, 82.343815
1928.000000, 83.531651
1929.000000, 84.631395
1930.000000, 85.527953
1931.000000, 86.304451
1932.000000, 86.862818
1933.000000, 87.169216
1934.000000, 87.208265
1935.000000, 87.049876
1936.000000, 86.604800
1937.000000, 85.925240
1938.000000, 85.100057
1939.000000, 84.110202
1940.000000, 82.936523
1941.000000, 81.678605
1942.000000, 80.288811
1943.000000, 78.886201
1944.000000, 77.525481
1945.000000, 76.150411
1946.000000, 74.799394
1947.000000, 73.637213
1948.000000, 72.476519
1949.000000, 71.441330
1950.000000, 70.608550
1951.000000, 69.890815
1952.000000, 69.331624
1953.000000, 68.984420
1954.000000, 68.740184
1955.000000, 68.684525
1956.000000, 68.779262
1957.000000, 69.049230
1958.000000, 69.469431
1959.000000, 70.044851
1960.000000, 70.765610
1961.000000, 71.607857
1962.000000, 72.615133
1963.000000, 73.729665
1964.000000, 74.940365
1965.000000, 76.225098
1966.000000, 77.608590
1967.000000, 78.978879
1968.000000, 80.351969
1969.000000, 81.710842
1970.000000, 83.004274
1971.000000, 84.262737
1972.000000, 85.445228
1973.000000, 86.422797
1974.000000, 87.296657
1975.000000, 88.020335
1976.000000, 88.566026
1977.000000, 88.919652
1978.000000, 89.101980
1979.000000, 89.082961
1980.000000, 88.889268
1981.000000, 88.524006
1982.000000, 88.013091
1983.000000, 87.391042
1984.000000, 86.678015
1985.000000, 85.858201
1986.000000, 85.004390
1987.000000, 84.139348
1988.000000, 83.282276
1989.000000, 82.450911
1990.000000, 81.669453
1991.000000, 80.946817
1992.000000, 80.273934
1993.000000, 79.732119
1994.000000, 79.274564
1995.000000, 78.943252
1996.000000, 78.732036
1997.000000, 78.646867
1998.000000, 78.681824
1999.000000, 78.825084
2000.000000, 79.078887
2001.000000, 79.447765
2002.000000, 79.913267
2003.000000, 80.475238
2004.000000, 81.111721
2005.000000, 81.819868
2006.000000, 82.587183
2007.000000, 83.359960
2008.000000, 84.182498
2009.000000, 85.002302
2010.000000, 85.793362
2011.000000, 86.556256
2012.000000, 87.264489
2013.000000, 87.920697
2014.000000, 88.491768
2015.000000, 88.960111
2016.000000, 89.333457
2017.000000, 89.595859
2018.000000, 89.754393
2019.000000, 89.808416
2020.000000, 89.710618
2021.000000, 89.479295
2022.000000, 89.175518
2023.000000, 88.780394
2024.000000, 88.297286
2025.000000, 87.689846
2026.000000, 87.024980
2027.000000, 86.365370
2028.000000, 85.686793
2029.000000, 85.011902
2030.000000, 84.353415
2031.000000, 83.687798
2032.000000, 83.084500
2033.000000, 82.565168
2034.000000, 82.113280
2035.000000, 81.716697
2036.000000, 81.395891
2037.000000, 81.193992
2038.000000, 81.070878
2039.000000, 81.033079
2040.000000, 81.116410
2041.000000, 81.300817
2042.000000, 81.584290
2043.000000, 81.923172
2044.000000, 82.353671
2045.000000, 82.927110
2046.000000, 83.530802
2047.000000, 84.168226
2048.000000, 84.854814
2049.000000, 85.569123
2050.000000, 86.315926
2051.000000, 87.086363
2052.000000, 87.859450
2053.000000, 88.581339
2054.000000, 89.273904
2055.000000, 89.931381
2056.000000, 90.501670
2057.000000, 90.962489
2058.000000, 91.328508
2059.000000, 91.605171
2060.000000, 91.796228
2061.000000, 91.832808
2062.000000, 91.725789
2063.000000, 91.528398
2064.000000, 91.195546
2065.000000, 90.730529
2066.000000, 90.178385
2067.000000, 89.555513
2068.000000, 88.836933
2069.000000, 88.006367
2070.000000, 87.172478
2071.000000, 86.322852
2072.000000, 85.475845
2073.000000, 84.607191
2074.000000, 83.722730
2075.000000, 82.878068
2076.000000, 82.106814
2077.000000, 81.361953
2078.000000, 80.702338
2079.000000, 80.106859
2080.000000, 79.604014
2081.000000, 79.186260
2082.000000, 78.861072
2083.000000, 78.628501
2084.000000, 78.483626
2085.000000, 78.448001
2086.000000, 78.495977
2087.000000, 78.659164
2088.000000, 78.879585
2089.000000, 79.175755
2090.000000, 79.572576
2091.000000, 80.039427
2092.000000, 80.562808
2093.000000, 81.146813
2094.000000, 81.834866
2095.000000, 82.563535
2096.000000, 83.301460
2097.000000, 84.056534
2098.000000, 84.797789
2099.000000, 85.627432
2100.000000, 86.443695
2101.000000, 87.252646
2102.000000, 88.034786
2103.000000, 88.777539
2104.000000, 89.443765
2105.000000, 90.079831
2106.000000, 90.617595
2107.000000, 91.082282
2108.000000, 91.450380
2109.000000, 91.742687
2110.000000, 91.921287
2111.000000, 92.006979
2112.000000, 91.990232
2113.000000, 91.881327
2114.000000, 91.678579
2115.000000, 91.407888
2116.000000, 91.063877
2117.000000, 90.666130
2118.000000, 90.255322
2119.000000, 89.727598
2120.000000, 89.242850
2121.000000, 88.759297
2122.000000, 88.253961
2123.000000, 87.794627
2124.000000, 87.347507
2125.000000, 86.930943
2126.000000, 86.565902
2127.000000, 86.195589
2128.000000, 85.905881
2129.000000, 85.649115
2130.000000, 85.501918
2131.000000, 85.393023
2132.000000, 85.354486
2133.000000, 85.355416
2134.000000, 85.412342
2135.000000, 85.551883
2136.000000, 85.761770
2137.000000, 86.030602
2138.000000, 86.349239
2139.000000, 86.697486
2140.000000, 87.079362
2141.000000, 87.522466
2142.000000, 88.008211
2143.000000, 88.504397
2144.000000, 88.977456
2145.000000, 89.515965
2146.000000, 90.033705
2147.000000, 90.563745
2148.000000, 91.069620
2149.000000, 91.541528
2150.000000, 91.926754
2151.000000, 92.360422
2152.000000, 92.655202
2153.000000, 92.909678
2154.000000, 93.116738
2155.000000, 93.229896
2156.000000, 93.217750
2157.000000, 93.197609
2158.000000, 93.069550
2159.000000, 92.864334
2160.000000, 92.610252
2161.000000, 92.252105
2162.000000, 91.906699
2163.000000, 91.465124
2164.000000, 91.015202
2165.000000, 90.510924
2166.000000, 89.954343
2167.000000, 89.384946
2168.000000, 88.838418
2169.000000, 88.288101
2170.000000, 87.764549
2171.000000, 87.235447
2172.000000, 86.785192
2173.000000, 86.329691
2174.000000, 85.916425
2175.000000, 85.544964
2176.000000, 85.208255
2177.000000, 84.922522
2178.000000, 84.726410
2179.000000, 84.563085
2180.000000, 84.437124
2181.000000, 84.374013
2182.000000, 84.318688
2183.000000, 84.309212
2184.000000, 84.329233
2185.000000, 84.375315
2186.000000, 84.458214
2187.000000, 84.577342
2188.000000, 84.706455
2189.000000, 84.863713
2190.000000, 84.995745
2191.000000, 85.204621
2192.000000, 85.384737
2193.000000, 85.582990
2194.000000, 85.738954
2195.000000, 85.850732
2196.000000, 85.916985
2197.000000, 86.013254
2198.000000, 86.038328
2199.000000, 85.983087
2200.000000, 85.899905
2200.900000, 85.815307
2201.710000, 85.730709
2202.510000, 85.598111
2203.320000, 85.421613
2204.120000, 85.205215
2204.920000, 84.964718
2205.730000, 84.696720
2206.530000, 84.392122
2207.330000, 84.057324
2208.140000, 83.709226
2208.940000, 83.357628
2209.740000, 82.985231
2210.550000, 82.582933
2211.350000, 82.185235
2212.150000, 81.791137
2212.960000, 81.402539
2213.760000, 81.010041
2214.560000, 80.618543
2215.370000, 80.247746
2216.170000, 79.892448
2216.980000, 79.549750
2217.780000, 79.235652
2218.580000, 78.947754
2219.390000, 78.687656
2220.190000, 78.457759
2220.990000, 78.248061
2221.800000, 78.079863
2222.600000, 77.942865
2223.400000, 77.821467
2224.210000, 77.738769
2225.010000, 77.692971
2225.810000, 77.682674
2226.620000, 77.704076
2227.420000, 77.756778
2228.220000, 77.851680
2229.030000, 77.976882
2229.830000, 78.124184
2230.640000, 78.318886
2231.440000, 78.541989
2232.240000, 78.795291
2233.050000, 79.086993
2233.850000, 79.381995
2234.650000, 79.697397
2235.460000, 80.049799
2236.260000, 80.429102
2237.060000, 80.803604
2237.870000, 81.171506
2238.670000, 81.567308
2239.470000, 81.981310
2240.280000, 82.387412
2241.080000, 82.789914
2241.890000, 83.189817
2242.690000, 83.578719
2243.490000, 83.948421
2244.300000, 84.308023
2245.100000, 84.668125
2245.900000, 85.014927
2246.710000, 85.332230
2247.510000, 85.613332
2248.310000, 85.868634
2249.120000, 86.093636
2249.920000, 86.276538
2250.720000, 86.436340
2251.530000, 86.574042
2252.330000, 86.662445
2253.130000, 86.704747
2253.940000, 86.717649
2254.740000, 86.699251
2255.550000, 86.642253
2256.350000, 86.544555
2257.150000, 86.415357
2257.960000, 86.251760
2258.760000, 86.070162
2259.560000, 85.873064
2260.370000, 85.640866
2261.170000, 85.368868
2261.970000, 85.073770
2262.780000, 84.778973
2263.580000, 84.482975
2264.380000, 84.166077
2265.190000, 83.840179
2265.990000, 83.517381
2266.800000, 83.197383
2267.600000, 82.861685
2268.400000, 82.521488
2269.210000, 82.197490
2270.010000, 81.898892
2270.810000, 81.633894
2271.620000, 81.378696
2272.420000, 81.122898
2273.220000, 80.884301
2274.030000, 80.665703
2274.830000, 80.469805
2275.630000, 80.309607
2276.440000, 80.173109
2277.240000, 80.062011
2278.040000, 79.966813
2278.850000, 79.904516
2279.650000, 79.884618
2280.460000, 79.886120
2281.260000, 79.914322
2282.060000, 79.972424
2282.870000, 80.058026
2283.670000, 80.180229
2284.470000, 80.323131
2285.280000, 80.493733
2286.080000, 80.693035
2286.880000, 80.901837
2287.690000, 81.135239
2288.490000, 81.399841
2289.290000, 81.687444
2290.100000, 81.981046
2290.900000, 82.283048
2291.700000, 82.614250
2292.510000, 82.952152
2293.310000, 83.280254
2294.120000, 83.612656
2294.920000, 83.956859
2295.720000, 84.323161
2296.530000, 84.689863
2297.330000, 85.029065
2298.130000, 85.354067
2298.940000, 85.681669
2299.740000, 85.996872
2300.540000, 86.285974
2301.350000, 86.549776
2302.150000, 86.798178
2302.950000, 87.035680
2303.760000, 87.249482
2304.560000, 87.423384
2305.370000, 87.561087
2306.170000, 87.674589
2306.970000, 87.758091
2307.780000, 87.809293
2308.580000, 87.828495
2309.380000, 87.814397
2310.190000, 87.772400
2310.990000, 87.704602
2311.790000, 87.601304
2312.600000, 87.470906
2313.400000, 87.310508
2314.200000, 87.112310
2315.010000, 86.896012
2315.810000, 86.662615
2316.610000, 86.401117
2317.420000, 86.116019
2318.220000, 85.823321
2319.030000, 85.508223
2319.830000, 85.168625
2320.630000, 84.824528
2321.440000, 84.476330
2322.240000, 84.128332
2323.040000, 83.778534
2323.850000, 83.428036
2324.650000, 83.079238
2325.450000, 82.742840
2326.260000, 82.418543
2327.060000, 82.096445
2327.860000, 81.783847
2328.670000, 81.487649
2329.470000, 81.205551
2330.270000, 80.938853
2331.080000, 80.691755
2331.880000, 80.456958
2332.690000, 80.243560
2333.490000, 80.065662
2334.290000, 79.903564
2335.100000, 79.762266
2335.900000, 79.656368
2336.700000, 79.586871
2337.510000, 79.529673
2338.310000, 79.487275
2339.110000, 79.471977
2339.920000, 79.484579
2340.720000, 79.536681
2341.520000, 79.607383
2342.330000, 79.687686
2343.130000, 79.791488
2343.940000, 79.930290
2344.740000, 80.097192
2345.540000, 80.284694
2346.350000, 80.493596
2347.150000, 80.709699
2347.950000, 80.936401
2348.760000, 81.198603
2349.560000, 81.477605
2350.360000, 81.764507
2351.170000, 82.054309
2351.970000, 82.351611
2352.770000, 82.667114
2353.580000, 82.990716
2354.380000, 83.309718
2355.180000, 83.637320
2355.990000, 83.970422
2356.790000, 84.300424
2357.600000, 84.617426
2358.400000, 84.929629
2359.200000, 85.244131
2360.010000, 85.549933
2360.810000, 85.850835
2361.610000, 86.112208
2362.420000, 86.351980
2363.220000, 86.576053
2364.020000, 86.789125
2364.830000, 86.976298
2365.630000, 87.146170
2366.430000, 87.297042
2367.240000, 87.436415
2368.040000, 87.545387
2368.850000, 87.622760
2369.650000, 87.674732
2370.450000, 87.712705
2371.260000, 87.733477
2372.060000, 87.729350
2372.860000, 87.692422
2373.670000, 87.630495
2374.470000, 87.556367
2375.270000, 87.475140
2376.080000, 87.370612
2376.880000, 87.240785
2377.680000, 87.095657
2378.490000, 86.934730
2379.290000, 86.757402
2380.090000, 86.564175
2380.900000, 86.356947
2381.700000, 86.144220
2382.510000, 85.929392
2383.310000, 85.711065
2384.110000, 85.490637
2384.920000, 85.261210
2385.720000, 85.031582
2386.520000, 84.799154
2387.330000, 84.561427
2388.130000, 84.325299
2388.930000, 84.094872
2389.740000, 83.880644
2390.540000, 83.678017
2391.340000, 83.479489
2392.150000, 83.289962
2392.950000, 83.109334
2393.750000, 82.940607
2394.560000, 82.783179
2395.360000, 82.636852
2396.170000, 82.497424
2396.970000, 82.374597
2397.770000, 82.265169
2398.580000, 82.169842
2399.380000, 82.089414
2400.180000, 82.014087
2400.990000, 81.951559
2401.790000, 81.901132
2402.590000, 81.863404
2403.400000, 81.845777
2404.200000, 81.850549
2405.000000, 81.859322
2405.810000, 81.867394
2406.610000, 81.889766
2407.420000, 81.931039
2408.220000, 81.980911
2409.020000, 82.038484
2409.830000, 82.108956
2410.630000, 82.187529
2411.430000, 82.264301
2412.240000, 82.337074
2413.040000, 82.417346
2413.840000, 82.511519
2414.650000, 82.609091
2415.450000, 82.702664
2416.250000, 82.791036
2417.060000, 82.877009
2417.860000, 82.965881
2418.660000, 83.054254
2419.470000, 83.135926
2420.270000, 83.216499
2421.080000, 83.299971
2421.880000, 83.374744
2422.680000, 83.431316
2423.490000, 83.477989
2424.290000, 83.519861
2425.090000, 83.556734
2425.900000, 83.585806
2426.700000, 83.600379
2427.500000, 83.607851
2428.310000, 83.614523
2429.110000, 83.609496
2429.910000, 83.584168
2430.720000, 83.542441
2431.520000, 83.493913
2432.320000, 83.443986
2433.130000, 83.396158
2433.930000, 83.337731
2434.740000, 83.267603
2435.540000, 83.191476
2436.340000, 83.091248
2437.150000, 82.980221
2437.950000, 82.877793
2438.750000, 82.784466
2439.560000, 82.683938
2440.360000, 82.569211
2441.160000, 82.451983
2441.970000, 82.333456
2442.770000, 82.213328
2443.570000, 82.096901
2444.380000, 81.981573
2445.180000, 81.870446
2445.990000, 81.770018
2446.790000, 81.670291
2447.590000, 81.565563
2448.400000, 81.463035
2449.200000, 81.368208
2450.000000, 81.281480
2450.810000, 81.204853
2451.610000, 81.132025
2452.410000, 81.056598
2453.220000, 80.989470
2454.020000, 80.935743
2454.820000, 80.895315
2455.630000, 80.869088
2456.430000, 80.854860
2457.230000, 80.849933
2458.040000, 80.848805
2458.840000, 80.851478
2459.650000, 80.864450
2460.450000, 80.890323
2461.250000, 80.929795
2462.060000, 80.979668
2462.860000, 81.037740
2463.660000, 81.106813
2464.470000, 81.185485
2465.270000, 81.265358
2466.070000, 81.345530
2466.880000, 81.431903
2467.680000, 81.538575
2468.480000, 81.656147
2469.290000, 81.765720
2470.090000, 81.878192
2470.890000, 82.002665
2471.700000, 82.134337
2472.500000, 82.264610
2473.310000, 82.380582
2474.110000, 82.494455
2474.910000, 82.614727
2475.720000, 82.733600
2476.520000, 82.855972
2477.320000, 82.979145
2478.130000, 83.096617
2478.930000, 83.208090
2479.730000, 83.305962
2480.540000, 83.387835
2481.340000, 83.461207
2482.140000, 83.534080
2482.950000, 83.609752
2483.750000, 83.683125
2484.560000, 83.731597
2485.360000, 83.754670
2486.160000, 83.778842
2486.970000, 83.802115
2487.770000, 83.812087
2488.570000, 83.800159
2489.380000, 83.776432
2490.180000, 83.747904
2490.980000, 83.700777
2491.790000, 83.636249
2492.590000, 83.565022
2493.390000, 83.493294
2494.200000, 83.425367
2495.000000, 83.329039
2495.800000, 83.194412
2496.610000, 83.056384
2497.410000, 82.924557
2498.220000, 82.791129
2499.020000, 82.657702
2499.820000, 82.509574
2500.630000, 82.350747
2501.430000, 82.196919
2502.230000, 82.047692
2503.040000, 81.884364
2503.840000, 81.701437
2504.640000, 81.523009
2505.450000, 81.358082
2506.250000, 81.185754
2507.050000, 80.999227
2507.860000, 80.821499
2508.660000, 80.655372
2509.470000, 80.493944
2510.270000, 80.338316
2511.070000, 80.182989
2511.880000, 80.025361
2512.680000, 79.883934
2513.480000, 79.759306
2514.290000, 79.652479
2515.090000, 79.549151
2515.890000, 79.431424
2516.700000, 79.322896
2517.500000, 79.233769
2518.300000, 79.147941
2519.110000, 79.075214
2519.910000, 79.013086
2520.710000, 78.950259
2521.520000, 78.902531
2522.320000, 78.884504
2523.130000, 78.893276
2523.930000, 78.921249
2524.730000, 78.931221
2525.540000, 78.934994
2526.340000, 78.961966
2527.140000, 79.009339
2527.950000, 79.061511
2528.750000, 79.122284
2529.550000, 79.200356
2530.360000, 79.298828
2531.160000, 79.433301
2531.960000, 79.583773
2532.770000, 79.694946
2533.570000, 79.774618
2534.370000, 79.853191
2535.180000, 79.995763
2535.980000, 80.192736
2536.790000, 80.341308
2537.590000, 80.417881
2538.390000, 80.525853
2539.200000, 80.669526
2540.000000, 80.812798
2540.800000, 80.972071
2541.610000, 81.169643
2542.410000, 81.397316
2543.210000, 81.613588
2544.020000, 81.766561
2544.820000, 81.880233
2545.620000, 81.961806
2546.430000, 82.058578
2547.230000, 82.239351
2548.040000, 82.458223
2548.840000, 82.559296
2549.640000, 82.590968
2550.450000, 82.680140
2551.250000, 82.796913
2552.050000, 82.900185
2552.860000, 83.011358
2553.660000, 83.046130
2554.460000, 83.008303
2555.270000, 83.002675
2556.070000, 83.016948
2556.870000, 83.027320
2557.680000, 83.033593
2558.480000, 83.048665
2559.280000, 83.103838
2560.090000, 83.220910
2560.890000, 83.323683
2561.700000, 83.304655
2562.500000, 83.208928
2563.300000, 83.091400
2564.110000, 82.995173
2564.910000, 82.850045
2565.710000, 82.621518
2566.520000, 82.438090
2567.320000, 82.343563
2568.120000, 82.306835
2568.930000, 82.304808
2569.730000, 82.204180
2570.530000, 81.915553
2571.340000, 81.672025
2572.140000, 81.557497
2572.940000, 81.518670
2573.750000, 81.402242
2574.550000, 81.205215
2575.360000, 81.050987
2576.160000, 80.970060
2576.960000, 80.841832
2577.770000, 80.559805
2578.570000, 80.321877
2579.370000, 80.215950
2580.180000, 80.186922
2580.980000, 80.170995
2581.780000, 80.047767
2582.590000, 79.962340
2583.390000, 80.000312
2584.190000, 79.920885
2585.000000, 79.613257
2585.800000, 79.476230
2586.610000, 79.506602
2587.410000, 79.564275
2588.210000, 79.500647
2589.020000, 79.394320
2589.820000, 79.274292
2590.620000, 79.173965
2591.430000, 79.173237
2592.230000, 79.279909
2593.030000, 79.406982
2593.840000, 79.537854
2594.640000, 79.765327
2595.440000, 79.933199
2596.250000, 79.781672
2597.050000, 79.651544
2597.850000, 79.605117
2598.660000, 79.607889
2599.460000, 79.679562
2600.270000, 79.821934
2601.070000, 80.017607
2601.870000, 80.210879
2602.680000, 80.371452
2603.480000, 80.606324
2604.280000, 80.890797
2605.090000, 81.096269
2605.890000, 81.213942
2606.690000, 81.290214
2607.500000, 81.368987
2608.300000, 81.447859
2609.100000, 81.561532
2609.910000, 81.724104
2610.710000, 81.844577
2611.520000, 81.958449
2612.320000, 82.149721
2613.120000, 82.383994
2613.930000, 82.550466
2614.730000, 82.686439
2615.530000, 82.881211
2616.340000, 83.186184
2617.140000, 83.527956
2617.940000, 83.607329
2618.750000, 83.582701
2619.550000, 83.667674
2620.350000, 83.830246
2621.160000, 83.850019
2621.960000, 83.776291
2622.760000, 83.750664
2623.570000, 83.769236
2624.370000, 83.817709
2625.180000, 83.908581
2625.980000, 84.057054
2626.780000, 84.179026
2627.590000, 84.115199
2628.390000, 84.053771
2629.190000, 84.138444
2630.000000, 84.323516
2630.800000, 84.305189
2631.600000, 84.001761
2632.410000, 83.820634
2633.210000, 83.737406
2634.010000, 83.593078
2634.820000, 83.333451
2635.620000, 83.106323
2636.420000, 82.940196
2637.230000, 82.781568
2638.030000, 82.614541
2638.840000, 82.439913
2639.640000, 82.267586
2640.440000, 82.118858
2641.250000, 81.991331
2642.050000, 81.815103
2642.850000, 81.540276
2643.660000, 81.274048
2644.460000, 81.112621
2645.260000, 80.998793
2646.070000, 80.793766
2646.870000, 80.473238
2647.670000, 80.172911
2648.480000, 79.925883
2649.280000, 79.705156
2650.090000, 79.511928
2650.890000, 79.366601
2651.690000, 79.281573
2652.500000, 79.145646
2653.300000, 78.861818
2654.100000, 78.630190
2654.910000, 78.496563
2655.710000, 78.322335
2656.510000, 78.074908
2657.320000, 77.880580
2658.120000, 77.759853
2658.920000, 77.711825
2659.730000, 77.679498
2660.530000, 77.565770
2661.330000, 77.438143
2662.140000, 77.333815
2662.940000, 77.250088
2663.750000, 77.251760
2664.550000, 77.362533
2665.350000, 77.532005
2666.160000, 77.596378
2666.960000, 77.514750
2667.760000, 77.366023
2668.570000, 77.290195
2669.370000, 77.319768
2670.170000, 77.412240
2670.980000, 77.421213
2671.780000, 77.397485
2672.580000, 77.463558
2673.390000, 77.591730
2674.190000, 77.747502
2674.990000, 77.946175
2675.800000, 78.242947
2676.600000, 78.616220
2677.410000, 78.848192
2678.210000, 78.826765
2679.010000, 78.796937
2679.820000, 78.844210
2680.620000, 78.878982
2681.420000, 78.920755
2682.230000, 79.042127
2683.030000, 79.239000
2683.830000, 79.378872
2684.640000, 79.365045
2685.440000, 79.322817
2686.240000, 79.299890
2687.050000, 79.174862
2687.850000, 78.997835
2688.660000, 78.842807
2689.460000, 78.643080
2690.260000, 78.424552
2691.070000, 78.272325
2691.870000, 78.187197
2692.670000, 78.192070
2693.480000, 78.293142
2694.280000, 78.370615
2695.080000, 78.295287
2695.890000, 78.072859
2696.690000, 77.758932
2697.490000, 77.507604
2698.300000, 77.334677
2699.100000, 77.189149
2699.900000, 77.070422
2700.710000, 76.955494
2701.510000, 76.723567
2702.320000, 76.439839
2703.120000, 76.241512
2703.920000, 76.078084
2704.730000, 75.918957
2705.530000, 75.756429
2706.330000, 75.586102
2707.140000, 75.438774
2707.940000, 75.366647
2708.740000, 75.352219
2709.550000, 75.281892
2710.350000, 75.095264
2711.150000, 74.800937
2711.960000, 74.436409
2712.760000, 74.141082
2713.570000, 73.919554
2714.370000, 73.708127
2715.170000, 73.503999
2715.980000, 73.342071
2716.780000, 73.238544
2717.580000, 73.144516
2718.390000, 73.023289
2719.190000, 72.957561
2719.990000, 72.994734
2720.800000, 72.846006
2721.600000, 72.355879
2722.400000, 72.039951
2723.210000, 71.945624
2724.010000, 71.929696
2724.810000, 71.811769
2725.620000, 71.459041
2726.420000, 71.087714
2727.230000, 70.827186
2728.030000, 70.631159
2728.830000, 70.452931
2729.640000, 70.287504
2730.440000, 70.142276
2731.240000, 70.017849
2732.050000, 69.902121
2732.850000, 69.788994
2733.650000, 69.709066
2734.460000, 69.653439
2735.260000, 69.533011
2736.060000, 69.353383
2736.870000, 69.233056
2737.670000, 69.213628
2738.470000, 69.307601
2739.280000, 69.497173
2740.080000, 69.562146
2740.890000, 69.432618
2741.690000, 69.231991
2742.490000, 68.994163
2743.300000, 68.812236
2744.100000, 68.729708
2744.900000, 68.720881
2745.710000, 68.732953
2746.510000, 68.730026
2747.310000, 68.742398
2748.120000, 68.799571
2748.920000, 68.874843
2749.720000, 68.946916
2750.530000, 69.047588
2751.330000, 69.206461
2752.140000, 69.378033
2752.940000, 69.505006
2753.740000, 69.636378
2754.550000, 69.852351
2755.350000, 70.169323
2756.150000, 70.362896
2756.960000, 70.390368
2757.760000, 70.436040
2758.560000, 70.515213
2759.370000, 70.621985
2760.170000, 70.761458
2760.970000, 70.928530
2761.780000, 71.122203
2762.580000, 71.353175
2763.380000, 71.605448
2764.190000, 71.805620
2764.990000, 71.952793
2765.800000, 72.123165
2766.600000, 72.347038
2767.400000, 72.587210
2768.210000, 72.810783
2769.010000, 73.014155
2769.810000, 73.252728
2770.620000, 73.611700
2771.420000, 74.037873
2772.220000, 74.376745
2773.030000, 74.600118
2773.830000, 74.789190
2774.630000, 75.021663
2775.440000, 75.323935
2776.240000, 75.678308
2777.040000, 76.047580
2777.850000, 76.376252
2778.650000, 76.636025
2779.460000, 76.856697
2780.260000, 77.100170
2781.060000, 77.420042
2781.870000, 77.767515
2782.670000, 78.035587
2783.470000, 78.224060
2784.280000, 78.386832
2785.080000, 78.573605
2785.880000, 78.825877
2786.690000, 79.166350
2787.490000, 79.527422
2788.290000, 79.756195
2789.100000, 79.847767
2789.900000, 79.929840
2790.710000, 80.056112
2791.510000, 80.202585
2792.310000, 80.353357
2793.120000, 80.511430
2793.920000, 80.657502
2794.720000, 80.787475
2795.530000, 80.921747
2796.330000, 81.057220
2797.130000, 81.181492
2797.940000, 81.284964
2798.740000, 81.364537
2799.540000, 81.443509
2800.350000, 81.548182
2801.150000, 81.684454
2801.950000, 81.861127
2802.760000, 82.076099
2803.560000, 82.226972
2804.370000, 82.188744
2805.170000, 82.052117
2805.970000, 81.948789
2806.780000, 81.893062
2807.580000, 81.863734
2808.380000, 81.842407
2809.190000, 81.797079
2809.990000, 81.723852
2810.790000, 81.650924
2811.600000, 81.586397
2812.400000, 81.531269
2813.200000, 81.499542
2814.010000, 81.491414
2814.810000, 81.466987
2815.610000, 81.380659
2816.420000, 81.255532
2817.220000, 81.155604
2818.030000, 81.106377
2818.830000, 81.086049
2819.630000, 81.056421
2820.440000, 80.989294
2821.240000, 80.869266
2822.040000, 80.705839
2822.850000, 80.536711
2823.650000, 80.389284
2824.450000, 80.270156
2825.260000, 80.174129
2826.060000, 80.101301
2826.860000, 80.050074
2827.670000, 79.988246
2828.470000, 79.882319
2829.280000, 79.756791
2830.080000, 79.656464
2830.880000, 79.591236
2831.690000, 79.547509
2832.490000, 79.513481
2833.290000, 79.484954
2834.100000, 79.455026
2834.900000, 79.408599
2835.700000, 79.345171
2836.510000, 79.290544
2837.310000, 79.263316
2838.110000, 79.236689
2838.920000, 79.168961
2839.720000, 79.078933
2840.520000, 79.017206
2841.330000, 78.992378
2842.130000, 78.979851
2842.940000, 78.963923
2843.740000, 78.948296
2844.540000, 78.942668
2845.350000, 78.952041
2846.150000, 78.972813
2846.950000, 79.001786
2847.760000, 79.041958
2848.560000, 79.094331
2849.360000, 79.142403
2850.170000, 79.163776
2850.970000, 79.171848
2851.770000, 79.204021
2852.580000, 79.277693
2853.380000, 79.385366
2854.190000, 79.500138
2854.990000, 79.580811
2855.790000, 79.610083
2856.600000, 79.618356
2857.400000, 79.645128
2858.200000, 79.705701
2859.010000, 79.793173
2859.810000, 79.888145
2860.610000, 79.970818
2861.420000, 80.039890
2862.220000, 80.110763
2863.020000, 80.194735
2863.830000, 80.290108
2864.630000, 80.390880
2865.430000, 80.499053
2866.240000, 80.616825
2867.040000, 80.730298
2867.850000, 80.826070
2868.650000, 80.911543
2869.450000, 80.999915
2870.260000, 81.100888
2871.060000, 81.221360
2871.860000, 81.349533
2872.670000, 81.460705
2873.470000, 81.548378
2874.270000, 81.624750
2875.080000, 81.702823
2875.880000, 81.792695
2876.680000, 81.898068
2877.490000, 82.007740
2878.290000, 82.103413
2879.090000, 82.185985
2879.900000, 82.272458
2880.700000, 82.368730
2881.510000, 82.467802
2882.310000, 82.566375
2883.110000, 82.667547
2883.920000, 82.769020
2884.720000, 82.858292
2885.520000, 82.932665
2886.330000, 83.008437
2887.130000, 83.097010
2887.930000, 83.188982
2888.740000, 83.270555
2889.540000, 83.341627
2890.340000, 83.407500
2891.150000, 83.469372
2891.950000, 83.529745
2892.760000, 83.592817
2893.560000, 83.659490
2894.360000, 83.726162
2895.170000, 83.788835
2895.970000, 83.848507
2896.770000, 83.908280
2897.580000, 83.968352
2898.380000, 84.031225
2899.180000, 84.108997
2899.990000, 84.208470
2900.790000, 84.303842
2901.590000, 84.355414
2902.400000, 84.371287
2903.200000, 84.392859
2904.000000, 84.436832
2904.810000, 84.488104
2905.610000, 84.529177
2906.420000, 84.562349
2907.220000, 84.600622
2908.020000, 84.647794
2908.830000, 84.697567
2909.630000, 84.743839
2910.430000, 84.786312
2911.240000, 84.826784
2912.040000, 84.866357
2912.840000, 84.906429
2913.650000, 84.949002
2914.450000, 84.991174
2915.250000, 85.028247
2916.060000, 85.060119
2916.860000, 85.089692
2917.660000, 85.116364
2918.470000, 85.139837
2919.270000, 85.163809
2920.080000, 85.193382
2920.880000, 85.231954
2921.680000, 85.281826
2922.490000, 85.339999
2923.290000, 85.390971
2924.090000, 85.414844
2924.900000, 85.413016
2925.700000, 85.408489
2926.500000, 85.416861
2927.310000, 85.435134
2928.110000, 85.456406
2928.910000, 85.478379
2929.720000, 85.500351
2930.520000, 85.519524
2931.330000, 85.532896
2932.130000, 85.541669
2932.930000, 85.548241
2933.740000, 85.551814
2934.540000, 85.552286
2935.340000, 85.553859
2936.150000, 85.558431
2936.950000, 85.564004
2937.750000, 85.568876
2938.560000, 85.570749
2939.360000, 85.565021
2940.160000, 85.548594
2940.970000, 85.524466
2941.770000, 85.500239
2942.570000, 85.480611
2943.380000, 85.461083
2944.180000, 85.433656
2944.990000, 85.400028
2945.790000, 85.372301
2946.590000, 85.356173
2947.400000, 85.338246
2948.200000, 85.300018
2949.000000, 85.240991
2949.810000, 85.177763
2950.610000, 85.120336
2951.410000, 85.066008
2952.220000, 85.010281
2953.020000, 84.954653
2953.820000, 84.900426
2954.630000, 84.843198
2955.430000, 84.780171
2956.240000, 84.713643
2957.040000, 84.645816
2957.840000, 84.574988
2958.650000, 84.499961
2959.450000, 84.423333
2960.250000, 84.349206
2961.060000, 84.278678
2961.860000, 84.208651
2962.660000, 84.134823
2963.470000, 84.055395
2964.270000, 83.972368
2965.070000, 83.889440
2965.880000, 83.810113
2966.680000, 83.736285
2967.480000, 83.667658
2968.290000, 83.600730
2969.090000, 83.529503
2969.900000, 83.450375
2970.700000, 83.366348
2971.500000, 83.280320
2972.310000, 83.192893
2973.110000, 83.109465
2973.910000, 83.036038
2974.720000, 82.970110
2975.520000, 82.903283
2976.320000, 82.830755
2977.130000, 82.756928
2977.930000, 82.690500
2978.730000, 82.634273
2979.540000, 82.580445
2980.340000, 82.520118
2981.140000, 82.456190
2981.950000, 82.399563
2982.750000, 82.356335
2983.560000, 82.325107
2984.360000, 82.298980
2985.160000, 82.270152
2985.970000, 82.237125
2986.770000, 82.203697
2987.570000, 82.174670
2988.380000, 82.153342
2989.180000, 82.141415
2989.980000, 82.138787
2990.790000, 82.143760
2991.590000, 82.153832
2992.390000, 82.166605
2993.200000, 82.180477
2994.000000, 82.196550
2994.810000, 82.218822
2995.610000, 82.251795
2996.410000, 82.293767
2997.220000, 82.337340
2998.020000, 82.377712
2998.820000, 82.418185
2999.630000, 82.465357
3000.430000, 82.522030
3001.230000, 82.585702
3002.040000, 82.652975
3002.840000, 82.723147
3003.640000, 82.800020
3004.450000, 82.888692
3005.250000, 82.992064
3006.050000, 83.106237
3006.860000, 83.218809
3007.660000, 83.322082
3008.470000, 83.421154
3009.270000, 83.523327
3010.070000, 83.631799
3010.880000, 83.747472
3011.680000, 83.870844
3012.480000, 84.000417
3013.290000, 84.132889
3014.090000, 84.266162
3014.890000, 84.402334
3015.700000, 84.545107
3016.500000, 84.696979
3017.300000, 84.853652
3018.110000, 85.009924
3018.910000, 85.163897
3019.710000, 85.319169
3020.520000, 85.480742
3021.320000, 85.649814
3022.130000, 85.819487
3022.930000, 85.979159
3023.730000, 86.124232
3024.540000, 86.262204
3025.340000, 86.403276
3026.140000, 86.549349
3026.950000, 86.697021
3027.750000, 86.843894
3028.550000, 86.988566
3029.360000, 87.129939
3030.160000, 87.269611
3030.960000, 87.410684
3031.770000, 87.554656
3032.570000, 87.697329
3033.380000, 87.830901
3034.180000, 87.952474
3034.980000, 88.069346
3035.790000, 88.186919
3036.590000, 88.302791
3037.390000, 88.410864
3038.200000, 88.506336
3039.000000, 88.588209
3039.800000, 88.659581
3040.610000, 88.725254
3041.410000, 88.788826
3042.210000, 88.851099
3043.020000, 88.909071
3043.820000, 88.959344
3044.620000, 89.000916
3045.430000, 89.035088
3046.230000, 89.062861
3047.040000, 89.084033
3047.840000, 89.097006
3048.640000, 89.099678
3049.450000, 89.092751
3050.250000, 89.081623
3051.050000, 89.070296
3051.860000, 89.051768
3052.660000, 89.020041
3053.460000, 88.977313
3054.270000, 88.926286
3055.070000, 88.865758
3055.870000, 88.792531
3056.680000, 88.707003
3057.480000, 88.612376
3058.280000, 88.510648
3059.090000, 88.405821
3059.890000, 88.298693
3060.700000, 88.186566
3061.500000, 88.066338
3062.300000, 87.938211
3063.110000, 87.804883
3063.910000, 87.669356
3064.710000, 87.530928
3065.520000, 87.387700
3066.320000, 87.240873
3067.120000, 87.088745
3067.930000, 86.930618
3068.730000, 86.768990
3069.530000, 86.607663
3070.340000, 86.448135
3071.140000, 86.288608
3071.950000, 86.125280
3072.750000, 85.950753
3073.550000, 85.765925
3074.360000, 85.579098
3075.160000, 85.397570
3075.960000, 85.222943
3076.770000, 85.052515
3077.570000, 84.882588
3078.370000, 84.711660
3079.180000, 84.542433
3079.980000, 84.378405
3080.780000, 84.216178
3081.590000, 84.048150
3082.390000, 83.872923
3083.190000, 83.696995
3084.000000, 83.528868
3084.800000, 83.370440
3085.610000, 83.216313
3086.410000, 83.064385
3087.210000, 82.916857
3088.020000, 82.774430
3088.820000, 82.636202
3089.620000, 82.501475
3090.430000, 82.370547
3091.230000, 82.246220
3092.030000, 82.131892
3092.840000, 82.023365
3093.640000, 81.916337
3094.440000, 81.812610
3095.250000, 81.715482
3096.050000, 81.626855
3096.860000, 81.545827
3097.660000, 81.469500
3098.460000, 81.395272
3099.270000, 81.322545
3100.070000, 81.254317
3100.870000, 81.193690
3101.680000, 81.143562
3102.480000, 81.104835
3103.280000, 81.077307
3104.090000, 81.060380
3104.890000, 81.052652
3105.690000, 81.048125
3106.500000, 81.043497
3107.300000, 81.040669
3108.100000, 81.044642
3108.910000, 81.059714
3109.710000, 81.086787
3110.520000, 81.124259
3111.320000, 81.164932
3112.120000, 81.206704
3112.930000, 81.253277
3113.730000, 81.310249
3114.530000, 81.380422
3115.340000, 81.459094
3116.140000, 81.536467
3116.940000, 81.613339
3117.750000, 81.696512
3118.550000, 81.788984
3119.350000, 81.890157
3120.160000, 81.997129
3120.960000, 82.107402
3121.760000, 82.221574
3122.570000, 82.340247
3123.370000, 82.464619
3124.180000, 82.596092
3124.980000, 82.735764
3125.780000, 82.884237
3126.590000, 83.039909
3127.390000, 83.196681
3128.190000, 83.351154
3129.000000, 83.505126
3129.800000, 83.660899
3130.600000, 83.819371
3131.410000, 83.980544
3132.210000, 84.145016
3133.010000, 84.314089
3133.820000, 84.487361
3134.620000, 84.664334
3135.430000, 84.843506
3136.230000, 85.022979
3137.030000, 85.201551
3137.840000, 85.381624
3138.640000, 85.565496
3139.440000, 85.750469
3140.250000, 85.933141
3141.050000, 86.111914
3141.850000, 86.287786
3142.660000, 86.463859
3143.460000, 86.640531
3144.260000, 86.817304
3145.070000, 86.995776
3145.870000, 87.175849
3146.670000, 87.354421
3147.480000, 87.523994
3148.280000, 87.675966
3149.090000, 87.821938
3149.890000, 87.969011
3150.690000, 88.119583
3151.500000, 88.272756
3152.300000, 88.425028
3153.100000, 88.570801
3153.910000, 88.707873
3154.710000, 88.838546
3155.510000, 88.964218
3156.320000, 89.085291
3157.120000, 89.200963
3157.920000, 89.310236
3158.730000, 89.416508
3159.530000, 89.519481
3160.330000, 89.616953
3161.140000, 89.706526
3161.940000, 89.786798
3162.750000, 89.857771
3163.550000, 89.922543
3164.350000, 89.983416
3165.160000, 90.041188
3165.960000, 90.095861
3166.760000, 90.147233
3167.570000, 90.193406
3168.370000, 90.233278
3169.170000, 90.267650
3169.980000, 90.295923
3170.780000, 90.317195
3171.580000, 90.330368
3172.390000, 90.333340
3173.190000, 90.327513
3174.000000, 90.313085
3174.800000, 90.291058
3175.600000, 90.263330
3176.410000, 90.232903
3177.210000, 90.200975
3178.010000, 90.166548
3178.820000, 90.128220
3179.620000, 90.084993
3180.420000, 90.036065
3181.230000, 89.980238
3182.030000, 89.918210
3182.830000, 89.855083
3183.640000, 89.791655
3184.440000, 89.726728
3185.240000, 89.657700
3186.050000, 89.580273
3186.850000, 89.497045
3187.660000, 89.411218
3188.460000, 89.324690
3189.260000, 89.239262
3190.070000, 89.156235
3190.870000, 89.072007
3191.670000, 88.978980
3192.480000, 88.877852
3193.280000, 88.773325
3194.080000, 88.671597
3194.890000, 88.574670
3195.690000, 88.475742
3196.490000, 88.374515
3197.300000, 88.272687
3198.100000, 88.171560
3198.910000, 88.071132
3199.710000, 87.972605
3200.510000, 87.877377
3201.320000, 87.782550
3202.120000, 87.684522
3202.920000, 87.579795
3203.730000, 87.471067
3204.530000, 87.368640
3205.330000, 87.272812
3206.140000, 87.180885
3206.940000, 87.089757
3207.740000, 86.998330
3208.550000, 86.907102
3209.350000, 86.813075
3210.150000, 86.715247
3210.960000, 86.615019
3211.760000, 86.516492
3212.570000, 86.423664
3213.370000, 86.336037
3214.170000, 86.254509
3214.980000, 86.179882
3215.780000, 86.112054
3216.580000, 86.046027
3217.390000, 85.975399
3218.190000, 85.900072
3218.990000, 85.822044
3219.800000, 85.745517
3220.600000, 85.678189
3221.400000, 85.619762
3222.210000, 85.569334
3223.010000, 85.524907
3223.810000, 85.483679
3224.620000, 85.438452
3225.420000, 85.387124
3226.230000, 85.333197
3227.030000, 85.280669
3227.830000, 85.234142
3228.640000, 85.197414
3229.440000, 85.163487
3230.240000, 85.128359
3231.050000, 85.091331
3231.850000, 85.053404
3232.650000, 85.020276
3233.460000, 84.991749
3234.260000, 84.967521
3235.060000, 84.947694
3235.870000, 84.932766
3236.670000, 84.921939
3237.480000, 84.911411
3238.280000, 84.900784
3239.080000, 84.889556
3239.890000, 84.877729
3240.690000, 84.866501
3241.490000, 84.858374
3242.300000, 84.853946
3243.100000, 84.853219
3243.900000, 84.854691
3244.710000, 84.857064
3245.510000, 84.861436
3246.310000, 84.868009
3247.120000, 84.876281
3247.920000, 84.883654
3248.720000, 84.887426
3249.530000, 84.889899
3250.330000, 84.892971
3251.140000, 84.898243
3251.940000, 84.908116
3252.740000, 84.920888
3253.550000, 84.935361
3254.350000, 84.950933
3255.150000, 84.967506
3255.960000, 84.985878
3256.760000, 85.005651
3257.560000, 85.027123
3258.370000, 85.050896
3259.170000, 85.078568
3259.970000, 85.108541
3260.780000, 85.136513
3261.580000, 85.161486
3262.380000, 85.183558
3263.190000, 85.203631
3263.990000, 85.221003
3264.800000, 85.238176
3265.600000, 85.257948
3266.400000, 85.284021
3267.210000, 85.315593
3268.010000, 85.347966
3268.810000, 85.382138
3269.620000, 85.419411
3270.420000, 85.462183
3271.220000, 85.504456
3272.030000, 85.542028
3272.830000, 85.574100
3273.630000, 85.601473
3274.440000, 85.631045
3275.240000, 85.664518
3276.050000, 85.700990
3276.850000, 85.739363
3277.650000, 85.779835
3278.460000, 85.823708
3279.260000, 85.868480
3280.060000, 85.912153
3280.870000, 85.951425
3281.670000, 85.988198
3282.470000, 86.028170
3283.280000, 86.071743
3284.080000, 86.118515
3284.880000, 86.165788
3285.690000, 86.213260
3286.490000, 86.262333
3287.290000, 86.313705
3288.100000, 86.367278
3288.900000, 86.419050
3289.710000, 86.468923
3290.510000, 86.517895
3291.310000, 86.567868
3292.120000, 86.624240
3292.920000, 86.686912
3293.720000, 86.755185
3294.530000, 86.827757
3295.330000, 86.899430
3296.130000, 86.965402
3296.940000, 87.028475
3297.740000, 87.090547
3298.540000, 87.154020
3299.350000, 87.215092
3300.150000, 87.273165
3300.960000, 87.329737
3301.760000, 87.387510
3302.560000, 87.451882
3303.370000, 87.520855
3304.170000, 87.593427
3304.970000, 87.668700
3305.780000, 87.742972
3306.580000, 87.814445
3307.380000, 87.884717
3308.190000, 87.955490
3308.990000, 88.030262
3309.790000, 88.106235
3310.600000, 88.181507
3311.400000, 88.255580
3312.200000, 88.329352
3313.010000, 88.404924
3313.810000, 88.482097
3314.620000, 88.560269
3315.420000, 88.637942
3316.220000, 88.711514
3317.030000, 88.782687
3317.830000, 88.853259
3318.630000, 88.926132
3319.440000, 89.000004
3320.240000, 89.069977
3321.040000, 89.134949
3321.850000, 89.193822
3322.650000, 89.249094
3323.450000, 89.304767
3324.260000, 89.361439
3325.060000, 89.419612
3325.860000, 89.478284
3326.670000, 89.536957
3327.470000, 89.595529
3328.280000, 89.653502
3329.080000, 89.705974
3329.880000, 89.751547
3330.690000, 89.791119
3331.490000, 89.825592
3332.290000, 89.859364
3333.100000, 89.894337
3333.900000, 89.929409
3334.700000, 89.963481
3335.510000, 89.991554
3336.310000, 90.014326
3337.110000, 90.031499
3337.920000, 90.043171
3338.720000, 90.047644
3339.530000, 90.048116
3340.330000, 90.044989
3341.130000, 90.038361
3341.940000, 90.025634
3342.740000, 90.007606
3343.540000, 89.984579
3344.350000, 89.956851
3345.150000, 89.925524
3345.950000, 89.891696
3346.760000, 89.854569
3347.560000, 89.811941
3348.360000, 89.761714
3349.170000, 89.707786
3349.970000, 89.650759
3350.770000, 89.590831
3351.580000, 89.526204
3352.380000, 89.458376
3353.190000, 89.387549
3353.990000, 89.312821
3354.790000, 89.230093
3355.600000, 89.139366
3356.400000, 89.040438
3357.200000, 88.932111
3358.010000, 88.817883
3358.810000, 88.700056
3359.610000, 88.579528
3360.420000, 88.457001
3361.220000, 88.331473
3362.020000, 88.201046
3362.830000, 88.064118
3363.630000, 87.916391
3364.430000, 87.764663
3365.240000, 87.610836
3366.040000, 87.456308
3366.850000, 87.302181
3367.650000, 87.147153
3368.450000, 86.990126
3369.260000, 86.828898
3370.060000, 86.661971
3370.860000, 86.491543
3371.670000, 86.318216
3372.470000, 86.142988
3373.270000, 85.968161
3374.080000, 85.794033
3374.880000, 85.620705
3375.680000, 85.446178
3376.490000, 85.268950
3377.290000, 85.088823
3378.100000, 84.905195
3378.900000, 84.718168
3379.700000, 84.529740
3380.510000, 84.340413
3381.310000, 84.151085
3382.110000, 83.964458
3382.920000, 83.780930
3383.720000, 83.600803
3384.520000, 83.424775
3385.330000, 83.249048
3386.130000, 83.073420
3386.930000, 82.897193
3387.740000, 82.721465
3388.540000, 82.546138
3389.340000, 82.371610
3390.150000, 82.198783
3390.950000, 82.029455
3391.760000, 81.863128
3392.560000, 81.699900
3393.360000, 81.540073
3394.170000, 81.381845
3394.970000, 81.225618
3395.770000, 81.071990
3396.580000, 80.924062
3397.380000, 80.779935
3398.180000, 80.639307
3398.990000, 80.501880
3399.790000, 80.367852
3400.590000, 80.237725
3401.400000, 80.112797
3402.200000, 79.995770
3403.000000, 79.882742
3403.810000, 79.773515
3404.610000, 79.669987
3405.420000, 79.572960
3406.220000, 79.480732
3407.020000, 79.392905
3407.830000, 79.311977
3408.630000, 79.236550
3409.430000, 79.166622
3410.240000, 79.103995
3411.040000, 79.048367
3411.840000, 78.997240
3412.650000, 78.950512
3413.450000, 78.910285
3414.250000, 78.874457
3415.060000, 78.843130
3415.860000, 78.818402
3416.670000, 78.801574
3417.470000, 78.789547
3418.270000, 78.781719
3419.080000, 78.780092
3419.880000, 78.784264
3420.680000, 78.794237
3421.490000, 78.813009
3422.290000, 78.842582
3423.090000, 78.879654
3423.900000, 78.923927
3424.700000, 78.977699
3425.500000, 79.035672
3426.310000, 79.097444
3427.110000, 79.163417
3427.910000, 79.234489
3428.720000, 79.310262
3429.520000, 79.391634
3430.330000, 79.482407
3431.130000, 79.578279
3431.930000, 79.679152
3432.740000, 79.786324
3433.540000, 79.897197
3434.340000, 80.010669
3435.150000, 80.127242
3435.950000, 80.250214
3436.750000, 80.377886
3437.560000, 80.510359
3438.360000, 80.648631
3439.160000, 80.789604
3439.970000, 80.933276
3440.770000, 81.081349
3441.580000, 81.235921
3442.380000, 81.394394
3443.180000, 81.556866
3443.990000, 81.722439
3444.790000, 81.888811
3445.590000, 82.056184
3446.400000, 82.225756
3447.200000, 82.398729
3448.000000, 82.575101
3448.810000, 82.756174
3449.610000, 82.942146
3450.410000, 83.130519
3451.220000, 83.320991
3452.020000, 83.512464
3452.820000, 83.702736
3453.630000, 83.891309
3454.430000, 84.076081
3455.240000, 84.258654
3456.040000, 84.440126
3456.840000, 84.621099
3457.650000, 84.801471
3458.450000, 84.980743
3459.250000, 85.158716
3460.060000, 85.333188
3460.860000, 85.504761
3461.660000, 85.673233
3462.470000, 85.836206
3463.270000, 85.995078
3464.070000, 86.150651
3464.880000, 86.301523
3465.680000, 86.448096
3466.480000, 86.591368
3467.290000, 86.730541
3468.090000, 86.862813
3468.900000, 86.989886
3469.700000, 87.111658
3470.500000, 87.222231
3471.310000, 87.325703
3472.110000, 87.422076
3472.910000, 87.507448
3473.720000, 87.585921
3474.520000, 87.658593
3475.320000, 87.723066
3476.130000, 87.777238
3476.930000, 87.823711
3477.730000, 87.859983
3478.540000, 87.884555
3479.340000, 87.901528
3480.150000, 87.910500
3480.950000, 87.903973
3481.750000, 87.887945
3482.560000, 87.862518
3483.360000, 87.821790
3484.160000, 87.772663
3484.970000, 87.715835
3485.770000, 87.647108
3486.570000, 87.568780
3487.380000, 87.482753
3488.180000, 87.385325
3488.980000, 87.275898
3489.790000, 87.157070
3490.590000, 87.025343
3491.390000, 86.878215
3492.200000, 86.722588
3493.000000, 86.557760
3493.810000, 86.383033
3494.610000, 86.202605
3495.410000, 86.016478
3496.220000, 85.817050
3497.020000, 85.608623
3497.820000, 85.390995
3498.630000, 85.157967
3499.430000, 84.918340
3500.230000, 84.672812
3501.040000, 84.418685
3501.840000, 84.157557
3502.640000, 83.891030
3503.450000, 83.616802
3504.250000, 83.337975
3505.050000, 83.055247
3505.860000, 82.765720
3506.660000, 82.467392
3507.470000, 82.163665
3508.270000, 81.853337
3509.070000, 81.539510
3509.880000, 81.223782
3510.680000, 80.905555
3511.480000, 80.582727
3512.290000, 80.256800
3513.090000, 79.926972
3513.890000, 79.593445
3514.700000, 79.258717
3515.500000, 78.922990
3516.300000, 78.588262
3517.110000, 78.255235
3517.910000, 77.924307
3518.720000, 77.595680
3519.520000, 77.266552
3520.320000, 76.936724
3521.130000, 76.603897
3521.930000, 76.270469
3522.730000, 75.936542
3523.540000, 75.605014
3524.340000, 75.276387
3525.140000, 74.950559
3525.950000, 74.630432
3526.750000, 74.312104
3527.550000, 73.995577
3528.360000, 73.682349
3529.160000, 73.372522
3529.960000, 73.065994
3530.770000, 72.766467
3531.570000, 72.470739
3532.380000, 72.178312
3533.180000, 71.892484
3533.980000, 71.611357
3534.790000, 71.334529
3535.590000, 71.065602
3536.390000, 70.801474
3537.200000, 70.541547
3538.000000, 70.290619
3538.800000, 70.045392
3539.610000, 69.805364
3540.410000, 69.574236
3541.210000, 69.347409
3542.020000, 69.124481
3542.820000, 68.909554
3543.630000, 68.700726
3544.430000, 68.497399
3545.230000, 68.306171
3546.040000, 68.120744
3546.840000, 67.940816
3547.640000, 67.771289
3548.450000, 67.608261
3549.250000, 67.451534
3550.050000, 67.308706
3550.860000, 67.171479
3551.660000, 67.040251
3552.460000, 66.916724
3553.270000, 66.797596
3554.070000, 66.683269
3554.870000, 66.581041
3555.680000, 66.485514
3556.480000, 66.398186
3557.290000, 66.321259
3558.090000, 66.249231
3558.890000, 66.183404
3559.700000, 66.125676
3560.500000, 66.072848
3561.300000, 66.026721
3562.110000, 65.991093
3562.910000, 65.961966
3563.710000, 65.942638
3564.520000, 65.933411
3565.320000, 65.929783
3566.120000, 65.934356
3566.930000, 65.946328
3567.730000, 65.963101
3568.530000, 65.988773
3569.340000, 66.022846
3570.140000, 66.063118
3570.950000, 66.115491
3571.750000, 66.175363
3572.550000, 66.240636
3573.360000, 66.312808
3574.160000, 66.388181
3574.960000, 66.466253
3575.770000, 66.553326
3576.570000, 66.645498
3577.370000, 66.743171
3578.180000, 66.850443
3578.980000, 66.962916
3579.780000, 67.082288
3580.590000, 67.213860
3581.390000, 67.351033
3582.200000, 67.495905
3583.000000, 67.645878
3583.800000, 67.798150
3584.610000, 67.953223
3585.410000, 68.111995
3586.210000, 68.273368
3587.020000, 68.440740
3587.820000, 68.613113
3588.620000, 68.789085
3589.430000, 68.972558
3590.230000, 69.159930
3591.030000, 69.350603
3591.840000, 69.547275
3592.640000, 69.746548
3593.440000, 69.948920
3594.250000, 70.156293
3595.050000, 70.365065
3595.860000, 70.575838
3596.660000, 70.786410
3597.460000, 70.996883
3598.270000, 71.207455
3599.070000, 71.419628
3599.870000, 71.633200
3600.680000, 71.849673
3601.480000, 72.066945
3602.280000, 72.284617
3603.090000, 72.500990
3603.890000, 72.715862
3604.690000, 72.929035
3605.500000, 73.139107
3606.300000, 73.347580
3607.100000, 73.553952
3607.910000, 73.757325
3608.710000, 73.958897
3609.520000, 74.156770
3610.320000, 74.350842
3611.120000, 74.542215
3611.930000, 74.727687
3612.730000, 74.909560
3613.530000, 75.088432
3614.340000, 75.260605
3615.140000, 75.428977
3615.940000, 75.592050
3616.750000, 75.745322
3617.550000, 75.892795
3618.350000, 76.029867
3619.160000, 76.157240
3619.960000, 76.278712
3620.770000, 76.388585
3621.570000, 76.490957
3622.370000, 76.586829
3623.180000, 76.669002
3623.980000, 76.745674
3624.780000, 76.814547
3625.590000, 76.873619
3626.390000, 76.927092
3627.190000, 76.969364
3628.000000, 76.999137
3628.800000, 77.020909
3629.600000, 77.024682
3630.410000, 77.020354
3631.210000, 77.007627
3632.010000, 76.981399
3632.820000, 76.948472
3633.620000, 76.904644
3634.430000, 76.846317
3635.230000, 76.779789
3636.030000, 76.695562
3636.840000, 76.599534
3637.640000, 76.495007
3638.440000, 76.373579
3639.250000, 76.245752
3640.050000, 76.108424
3640.850000, 75.957797
3641.660000, 75.800569
3642.460000, 75.631241
3643.260000, 75.453114
3644.070000, 75.269286
3644.870000, 75.070559
3645.670000, 74.864231
3646.480000, 74.648204
3647.280000, 74.418676
3648.090000, 74.183549
3648.890000, 73.938821
3649.690000, 73.686894
3650.500000, 73.430566
3651.300000, 73.164939
3652.100000, 72.895011
3652.910000, 72.619884
3653.710000, 72.334456
3654.510000, 72.043829
3655.320000, 71.742901
3656.120000, 71.435074
3656.920000, 71.123246
3657.730000, 70.806219
3658.530000, 70.487591
3659.340000, 70.167064
3660.140000, 69.842536
3660.940000, 69.516109
3661.750000, 69.185481
3662.550000, 68.851554
3663.350000, 68.515726
3664.160000, 68.175798
3664.960000, 67.835771
3665.760000, 67.495543
3666.570000, 67.157016
3667.370000, 66.819088
3668.170000, 66.481761
3668.980000, 66.143333
3669.780000, 65.804006
3670.580000, 65.463078
3671.390000, 65.122551
3672.190000, 64.782923
3673.000000, 64.446396
3673.800000, 64.111568
3674.600000, 63.781341
3675.410000, 63.453013
3676.210000, 63.126986
3677.010000, 62.804358
3677.820000, 62.483531
3678.620000, 62.166603
3679.420000, 61.853576
3680.230000, 61.543148
3681.030000, 61.239421
3681.830000, 60.938593
3682.640000, 60.642166
3683.440000, 60.350638
3684.250000, 60.061610
3685.050000, 59.778483
3685.850000, 59.499455
3686.660000, 59.224828
3687.460000, 58.958600
3688.260000, 58.695973
3689.070000, 58.440745
3689.870000, 58.190518
3690.670000, 57.943990
3691.480000, 57.706263
3692.280000, 57.471835
3693.080000, 57.243708
3693.890000, 57.021580
3694.690000, 56.802653
3695.490000, 56.593525
3696.300000, 56.388398
3697.100000, 56.189570
3697.910000, 55.998243
3698.710000, 55.810415
3699.510000, 55.631788
3700.320000, 55.458360
3701.120000, 55.290833
3701.920000, 55.132305
3702.730000, 54.977578
3703.530000, 54.830950
3704.330000, 54.689222
3705.140000, 54.551595
3705.940000, 54.421767
3706.740000, 54.295340
3707.550000, 54.176912
3708.350000, 54.066085
3709.150000, 53.960657
3709.960000, 53.868230
3710.760000, 53.780402
3711.570000, 53.701775
3712.370000, 53.629947
3713.170000, 53.562020
3713.980000, 53.501192
3714.780000, 53.442565
3715.580000, 53.388237
3716.390000, 53.340710
3717.190000, 53.296482
3717.990000, 53.264755
3718.800000, 53.237227
3719.600000, 53.217400
3720.400000, 53.205072
3721.210000, 53.196445
3722.010000, 53.197817
3722.820000, 53.203090
3723.620000, 53.214762
3724.420000, 53.233835
3725.230000, 53.256407
3726.030000, 53.287979
3726.830000, 53.323052
3727.640000, 53.363924
3728.440000, 53.411297
3729.240000, 53.461769
3730.050000, 53.520642
3730.850000, 53.582414
3731.650000, 53.649387
3732.460000, 53.722759
3733.260000, 53.799132
3734.060000, 53.885204
3734.870000, 53.974677
3735.670000, 54.069949
3736.480000, 54.170722
3737.280000, 54.273894
3738.080000, 54.384767
3738.890000, 54.498639
3739.690000, 54.618512
3740.490000, 54.744284
3741.300000, 54.873257
3742.100000, 55.008429
3742.900000, 55.144702
3743.710000, 55.283474
3744.510000, 55.424847
3745.310000, 55.567719
3746.120000, 55.717191
3746.920000, 55.869264
3747.720000, 56.028036
3748.530000, 56.191309
3749.330000, 56.358181
3750.140000, 56.529954
3750.940000, 56.703126
3751.740000, 56.878999
3752.550000, 57.055571
3753.350000, 57.232744
3754.150000, 57.410716
3754.960000, 57.589189
3755.760000, 57.769661
3756.560000, 57.951134
3757.370000, 58.134006
3758.170000, 58.318679
3758.970000, 58.504051
3759.780000, 58.691724
3760.580000, 58.879596
3761.390000, 59.067969
3762.190000, 59.255641
3762.990000, 59.442714
3763.800000, 59.628486
3764.600000, 59.813859
3765.400000, 59.998031
3766.210000, 60.180803
3767.010000, 60.362476
3767.810000, 60.541448
3768.620000, 60.719321
3769.420000, 60.893793
3770.220000, 61.066366
3771.030000, 61.236438
3771.830000, 61.402811
3772.630000, 61.567683
3773.440000, 61.726256
3774.240000, 61.882528
3775.050000, 62.033901
3775.850000, 62.181173
3776.650000, 62.325846
3777.460000, 62.463618
3778.260000, 62.598991
3779.060000, 62.726763
3779.870000, 62.850136
3780.670000, 62.968308
3781.470000, 63.079581
3782.280000, 63.188153
3783.080000, 63.287026
3783.880000, 63.381998
3784.690000, 63.468871
3785.490000, 63.548943
3786.300000, 63.624316
3787.100000, 63.692988
3787.900000, 63.759460
3788.710000, 63.819633
3789.510000, 63.874305
3790.310000, 63.921678
3791.120000, 63.957450
3791.920000, 63.988523
3792.720000, 64.006095
3793.530000, 64.020968
3794.330000, 64.028340
3795.130000, 64.029813
3795.940000, 64.025985
3796.740000, 64.011058
3797.540000, 63.992330
3798.350000, 63.961103
3799.150000, 63.925875
3799.960000, 63.882848
3800.760000, 63.833220
3801.560000, 63.779493
3802.370000, 63.716465
3803.170000, 63.650738
3803.970000, 63.575810
3804.780000, 63.496283
3805.580000, 63.410155
3806.380000, 63.316828
3807.190000, 63.220100
3807.990000, 63.114000
3808.790000, 63.005500
3809.600000, 62.889200
3810.400000, 62.768600
3811.200000, 62.642700
3812.010000, 62.511600
3812.810000, 62.378400
3813.620000, 62.239700
3814.420000, 62.099600
3815.220000, 61.955100
3816.030000, 61.807700
3816.830000, 61.657200
3817.630000, 61.501900
3818.440000, 61.344700
3819.240000, 61.181200
3820.040000, 61.016700
3820.850000, 60.849300
3821.650000, 60.680800
3822.450000, 60.511100
3823.260000, 60.339400
3824.060000, 60.166800
3824.870000, 59.991300
3825.670000, 59.815500
3826.470000, 59.639000
3827.280000, 59.462900
3828.080000, 59.287200
3828.880000, 59.112000
3829.690000, 58.937000
3830.490000, 58.761000
3831.290000, 58.584600
3832.100000, 58.406000
3832.900000, 58.226900
3833.700000, 58.046900
3834.510000, 57.868600
3835.310000, 57.691200
3836.110000, 57.518800
3836.920000, 57.347800
3837.720000, 57.182100
3838.530000, 57.017800
3839.330000, 56.856100
3840.130000, 56.695200
3840.940000, 56.534900
3841.740000, 56.375300
3842.540000, 56.216000
3843.350000, 56.059800
3844.150000, 55.905400
3844.950000, 55.755600
3845.760000, 55.609600
3846.560000, 55.467500
3847.360000, 55.329900
3848.170000, 55.194200
3848.970000, 55.063000
3849.770000, 54.932800
3850.580000, 54.805900
3851.380000, 54.681000
3852.190000, 54.559100
3852.990000, 54.441300
3853.790000, 54.326300
3854.600000, 54.217700
3855.400000, 54.110700
3856.200000, 54.010900
3857.010000, 53.913000
3857.810000, 53.820400
3858.610000, 53.731200
3859.420000, 53.645800
3860.220000, 53.565200
3861.020000, 53.486800
3861.830000, 53.414500
3862.630000, 53.343600
3863.440000, 53.278400
3864.240000, 53.215200
3865.040000, 53.156100
3865.850000, 53.100700
3866.650000, 53.048400
3867.450000, 53.002600
3868.260000, 52.959200
3869.060000, 52.925100
3869.860000, 52.893000
3870.670000, 52.868900
3871.470000, 52.847300
3872.270000, 52.830800
3873.080000, 52.817400
3873.880000, 52.806700
3874.680000, 52.800100
3875.490000, 52.794800
3876.290000, 52.795600
3877.100000, 52.797700
3877.900000, 52.805900
3878.700000, 52.816400
3879.510000, 52.831700
3880.310000, 52.851200
3881.110000, 52.874400
3881.920000, 52.903800
3882.720000, 52.935600
3883.520000, 52.975200
3884.330000, 53.016300
3885.130000, 53.064600
3885.930000, 53.115000
3886.740000, 53.170500
3887.540000, 53.229200
3888.350000, 53.291300
3889.150000, 53.357000
3889.950000, 53.424600
3890.760000, 53.496700
3891.560000, 53.569600
3892.360000, 53.648100
3893.170000, 53.727900
3893.970000, 53.812700
3894.770000, 53.900100
3895.580000, 53.991200
3896.380000, 54.086000
3897.180000, 54.183500
3897.990000, 54.286100
3898.790000, 54.390400
3899.590000, 54.500400
3900.400000, 54.611200
3901.200000, 54.725700
3902.010000, 54.841200
3902.810000, 54.958900
3903.610000, 55.078600
3904.420000, 55.200600
3905.220000, 55.325300
3906.020000, 55.451700
3906.830000, 55.580400
3907.630000, 55.709700
3908.430000, 55.841600
3909.240000, 55.973800
3910.040000, 56.108600
3910.840000, 56.244100
3911.650000, 56.381000
3912.450000, 56.518500
3913.250000, 56.656700
3914.060000, 56.795900
3914.860000, 56.935700
3915.670000, 57.077000
3916.470000, 57.218700
3917.270000, 57.361100
3918.080000, 57.503500
3918.880000, 57.644900
3919.680000, 57.785900
3920.490000, 57.926000
3921.290000, 58.066200
3922.090000, 58.206500
3922.900000, 58.346800
3923.700000, 58.487100
3924.500000, 58.625900
3925.310000, 58.764200
3926.110000, 58.899700
3926.920000, 59.034600
3927.720000, 59.165900
3928.520000, 59.296300
3929.330000, 59.423100
3930.130000, 59.548200
3930.930000, 59.669900
3931.740000, 59.789700
3932.540000, 59.907200
3933.340000, 60.022500
3934.150000, 60.136400
3934.950000, 60.246400
3935.750000, 60.355000
3936.560000, 60.456700
3937.360000, 60.557400
3938.160000, 60.650600
3938.970000, 60.742600
3939.770000, 60.828600
3940.580000, 60.912500
3941.380000, 60.991500
3942.180000, 61.067500
3942.990000, 61.139900
3943.790000, 61.207800
3944.590000, 61.272700
3945.400000, 61.330500
3946.200000, 61.385500
3947.000000, 61.431000
3947.810000, 61.474800
3948.610000, 61.507900
3949.410000, 61.539700
3950.220000, 61.562500
3951.020000, 61.583000
3951.820000, 61.596400
3952.630000, 61.606600
3953.430000, 61.611300
3954.240000, 61.611400
3955.040000, 61.607000
3955.840000, 61.596300
3956.650000, 61.581800
3957.450000, 61.559300
3958.250000, 61.534000
3959.060000, 61.499100
3959.860000, 61.462600
3960.660000, 61.415400
3961.470000, 61.367100
3962.270000, 61.310600
3963.070000, 61.252600
3963.880000, 61.188600
3964.680000, 61.121700
3965.490000, 61.048900
3966.290000, 60.971000
3967.090000, 60.886700
3967.900000, 60.796300
3968.700000, 60.700900
3969.500000, 60.600200
3970.310000, 60.496900
3971.110000, 60.388900
3971.910000, 60.279500
3972.720000, 60.164100
3973.520000, 60.047900
3974.320000, 59.923300
3975.130000, 59.797800
3975.930000, 59.663900
3976.730000, 59.528500
3977.540000, 59.387000
3978.340000, 59.244000
3979.150000, 59.097100
3979.950000, 58.948400
3980.750000, 58.796600
3981.560000, 58.642600
3982.360000, 58.486100
3983.160000, 58.327200
3983.970000, 58.166700
3984.770000, 58.003700
3985.570000, 57.839700
3986.380000, 57.672500
3987.180000, 57.504400
3987.980000, 57.333200
3988.790000, 57.161500
3989.590000, 56.987400
3990.390000, 56.813100
3991.200000, 56.636400
3992.000000, 56.459600
3992.810000, 56.280800
3993.610000, 56.101800
3994.410000, 55.921900
3995.220000, 55.741900
3996.020000, 55.562100
3996.820000, 55.382600
3997.630000, 55.203600
3998.430000, 55.024800
3999.230000, 54.846300
4000.040000, 54.667700
4000.840000, 54.489000
4001.640000, 54.311000
4002.450000, 54.133200
4003.250000, 53.957100
4004.060000, 53.781700
4004.860000, 53.607700
4005.660000, 53.434200
4006.470000, 53.261400
4007.270000, 53.088800
4008.070000, 52.917700
4008.880000, 52.746700
4009.680000, 52.579400
4010.480000, 52.412600
4011.290000, 52.250200
4012.090000, 52.088500
4012.890000, 51.930500
4013.700000, 51.773100
4014.500000, 51.617900
4015.300000, 51.463200
4016.110000, 51.309800
4016.910000, 51.157600
4017.720000, 51.007300
4018.520000, 50.858700
4019.320000, 50.712700
4020.130000, 50.568500
4020.930000, 50.426400
4021.730000, 50.286200
4022.540000, 50.147700
4023.340000, 50.012400
4024.140000, 49.879300
4024.950000, 49.750700
4025.750000, 49.624500
4026.550000, 49.502200
4027.360000, 49.381500
4028.160000, 49.263200
4028.970000, 49.145600
4029.770000, 49.031200
4030.570000, 48.917600
4031.380000, 48.809700
4032.180000, 48.702600
4032.980000, 48.601300
4033.790000, 48.500500
4034.590000, 48.404400
4035.390000, 48.308600
4036.200000, 48.217300
4037.000000, 48.126400
4037.800000, 48.040200
4038.610000, 47.954600
4039.410000, 47.873500
4040.210000, 47.793200
4041.020000, 47.717000
4041.820000, 47.641700
4042.630000, 47.569700
4043.430000, 47.498800
4044.230000, 47.431400
4045.040000, 47.365500
4045.840000, 47.303800
4046.640000, 47.243700
4047.450000, 47.187400
4048.250000, 47.132400
4049.050000, 47.080200
4049.860000, 47.029500
4050.660000, 46.981500
4051.460000, 46.935500
4052.270000, 46.892600
4053.070000, 46.851900
4053.870000, 46.814200
4054.680000, 46.778800
4055.480000, 46.745800
4056.290000, 46.714900
4057.090000, 46.686100
4057.890000, 46.659200
4058.700000, 46.634100
4059.500000, 46.610700
4060.300000, 46.588900
4061.110000, 46.569100
4061.910000, 46.550900
4062.710000, 46.535400
4063.520000, 46.521900
4064.320000, 46.511400
4065.120000, 46.502900
4065.930000, 46.496500
4066.730000, 46.491500
4067.540000, 46.487400
4068.340000, 46.483800
4069.140000, 46.480900
4069.950000, 46.478400
4070.750000, 46.477400
4071.550000, 46.477300
4072.360000, 46.479800
4073.160000, 46.483700
4073.960000, 46.490200
4074.770000, 46.498100
4075.570000, 46.507600
4076.370000, 46.518000
4077.180000, 46.528700
4077.980000, 46.539600
4078.780000, 46.550300
4079.590000, 46.560800
4080.390000, 46.571800
4081.200000, 46.583000
4082.000000, 46.595400
4082.800000, 46.608400
4083.610000, 46.622300
4084.410000, 46.636700
4085.210000, 46.651200
4086.020000, 46.665900
4086.820000, 46.680500
4087.620000, 46.695100
4088.430000, 46.709700
4089.230000, 46.724400
4090.030000, 46.739000
4090.840000, 46.753500
4091.640000, 46.767300
4092.440000, 46.780800
4093.250000, 46.792700
4094.050000, 46.803600
4094.860000, 46.812900
4095.660000, 46.821300
4096.460000, 46.828800
4097.270000, 46.835800
4098.070000, 46.842300
4098.870000, 46.848700
4099.680000, 46.854300
4100.480000, 46.859600
4101.280000, 46.863400
4102.090000, 46.866300
4102.890000, 46.867100
4103.690000, 46.866500
4104.500000, 46.863800
4105.300000, 46.859400
4106.110000, 46.852700
4106.910000, 46.844100
4107.710000, 46.833300
4108.520000, 46.820300
4109.320000, 46.805600
4110.120000, 46.789000
4110.930000, 46.770800
4111.730000, 46.750700
4112.530000, 46.728600
4113.340000, 46.703900
4114.140000, 46.677500
4114.940000, 46.648500
4115.750000, 46.617800
4116.550000, 46.584400
4117.350000, 46.549200
4118.160000, 46.510500
4118.960000, 46.470100
4119.770000, 46.426000
4120.570000, 46.380600
4121.370000, 46.331600
4122.180000, 46.281500
4122.980000, 46.227500
4123.780000, 46.172600
4124.590000, 46.113700
4125.390000, 46.054100
4126.190000, 45.990100
4127.000000, 45.925600
4127.800000, 45.856000
4128.600000, 45.786000
4129.410000, 45.710500
4130.210000, 45.634900
4131.020000, 45.553900
4131.820000, 45.472900
4132.620000, 45.386900
4133.430000, 45.300800
4134.230000, 45.210600
4135.030000, 45.120000
4135.840000, 45.026000
4136.640000, 44.931400
4137.440000, 44.833300
4138.250000, 44.734500
4139.050000, 44.632000
4139.850000, 44.528400
4140.660000, 44.421500
4141.460000, 44.313300
4142.260000, 44.202600
4143.070000, 44.090700
4143.870000, 43.977000
4144.680000, 43.862000
4145.480000, 43.745100
4146.280000, 43.626600
4147.090000, 43.506300
4147.890000, 43.384000
4148.690000, 43.260800
4149.500000, 43.136200
4150.300000, 43.011400
4151.100000, 42.886000
4151.910000, 42.760300
4152.710000, 42.633800
4153.510000, 42.506900
4154.320000, 42.377700
4155.120000, 42.248000
4155.920000, 42.114800
4156.730000, 41.981400
4157.530000, 41.844800
4158.340000, 41.708300
4159.140000, 41.571200
4159.940000, 41.434200
4160.750000, 41.298200
4161.550000, 41.162400
4162.350000, 41.026300
4163.160000, 40.890300
4163.960000, 40.752800
4164.760000, 40.614800
4165.570000, 40.476500
4166.370000, 40.338000
4167.170000, 40.200800
4167.980000, 40.064600
4168.780000, 39.929700
4169.590000, 39.796100
4170.390000, 39.662600
4171.190000, 39.529400
4172.000000, 39.396000
4172.800000, 39.262100
4173.600000, 39.128300
4174.410000, 38.994900
4175.210000, 38.862000
4176.010000, 38.730900
4176.820000, 38.599900
4177.620000, 38.471300
4178.420000, 38.342800
4179.230000, 38.216700
4180.030000, 38.090800
4180.830000, 37.967800
4181.640000, 37.845300
4182.440000, 37.726700
4183.250000, 37.609400
4184.050000, 37.496200
4184.850000, 37.385200
4185.660000, 37.277900
4186.460000, 37.173600
4187.260000, 37.072900
4188.070000, 36.976500
4188.870000, 36.884000
4189.670000, 36.798500
4190.480000, 36.716700
4191.280000, 36.646200
4192.080000, 36.578400
4192.890000, 36.526100
4193.690000, 36.474600
4194.490000, 36.440700
4195.300000, 36.406900
4196.100000, 36.387300
4196.910000, 36.369000
4197.710000, 36.360800
4198.510000, 36.355000
4199.320000, 36.356000
4200.120000, 36.359900
4200.920000, 36.368000
4201.730000, 36.379000
4202.530000, 36.393100
4203.330000, 36.411100
4204.140000, 36.432000
4204.940000, 36.458600
4205.740000, 36.487500
4206.550000, 36.524300
4207.350000, 36.562200
4208.160000, 36.610700
4208.960000, 36.659200
4209.760000, 36.720400
4210.570000, 36.781900
4211.370000, 36.854300
4212.170000, 36.928600
4212.980000, 37.012200
4213.780000, 37.099500
4214.580000, 37.194000
4215.390000, 37.293500
4216.190000, 37.396800
4216.990000, 37.504600
4217.800000, 37.613200
4218.600000, 37.723600
4219.400000, 37.833500
4220.210000, 37.941300
4221.010000, 38.048800
4221.820000, 38.151500
4222.620000, 38.254100
4223.420000, 38.353500
4224.230000, 38.452500
4225.030000, 38.547600
4225.830000, 38.641400
4226.640000, 38.724800
4227.440000, 38.802000
4228.240000, 38.865900
4229.050000, 38.915400
4229.850000, 38.955800
4230.650000, 38.978300
4231.460000, 38.997400
4232.260000, 39.001700
4233.060000, 39.005700
4233.870000, 39.001500
4234.670000, 38.997200
4235.480000, 38.977100
4236.280000, 38.955000
4237.080000, 38.903400
4237.890000, 38.841200
4238.690000, 38.757600
4239.490000, 38.658700
4240.300000, 38.547500
4241.100000, 38.419800
4241.900000, 38.278300
4242.710000, 38.098800
4243.510000, 37.912900
4244.310000, 37.672000
4245.120000, 37.431200
4245.920000, 37.171600
4246.730000, 36.910900
4247.530000, 36.664800
4248.330000, 36.422800
4249.140000, 36.183500
4249.940000, 35.946000
4250.740000, 35.698800
4251.550000, 35.439800
4252.350000, 35.175900
4253.150000, 34.899100
4253.960000, 34.625300
4254.760000, 34.374500
4255.560000, 34.123800
4256.370000, 33.961600
4257.170000, 33.805200
4257.970000, 33.752800
4258.780000, 33.732400
4259.580000, 33.784100
4260.390000, 33.886000
4261.190000, 34.007700
4261.990000, 34.157900
4262.800000, 34.299300
4263.600000, 34.411500
4264.400000, 34.520200
4265.210000, 34.561400
4266.010000, 34.602600
4266.810000, 34.588800
4267.620000, 34.566600
4268.420000, 34.508800
4269.220000, 34.434500
4270.030000, 34.336200
4270.830000, 34.213500
4271.640000, 34.078200
4272.440000, 33.914600
4273.240000, 33.750100
4274.050000, 33.578400
4274.850000, 33.406700
4275.650000, 33.276600
4276.460000, 33.150000
4277.260000, 33.067400
4278.060000, 33.001100
4278.870000, 32.941400
4279.670000, 32.887600
4280.470000, 32.825000
4281.280000, 32.745400
4282.080000, 32.664700
4282.880000, 32.577000
4283.690000, 32.489300
4284.490000, 32.408200
4285.300000, 32.327500
4286.100000, 32.243400
4286.900000, 32.158000
4287.710000, 32.065000
4288.510000, 31.965100
4289.310000, 31.860400
4290.120000, 31.745400
4290.920000, 31.628600
4291.720000, 31.498000
4292.530000, 31.367500
4293.330000, 31.223200
4294.130000, 31.077600
4294.940000, 30.923300
4295.740000, 30.765200
4296.540000, 30.602600
4297.350000, 30.435100
4298.150000, 30.266800
4298.960000, 30.096300
4299.760000, 29.926000
4300.560000, 29.758500
4301.370000, 29.591100
4302.170000, 29.424400
4302.970000, 29.258100
4303.780000, 29.090300
4304.580000, 28.921600
4305.380000, 28.750900
4306.190000, 28.576900
4306.990000, 28.400700
4307.790000, 28.212900
4308.600000, 28.025100
4309.400000, 27.821800
4310.210000, 27.617500
4311.010000, 27.408900
4311.810000, 27.198600
4312.620000, 26.990700
4313.420000, 26.785600
4314.220000, 26.582500
4315.030000, 26.385700
4315.830000, 26.188900
4316.630000, 25.999400
4317.440000, 25.809900
4318.240000, 25.628400
4319.040000, 25.449200
4319.850000, 25.276200
4320.650000, 25.108700
4321.450000, 24.942900
4322.260000, 24.781200
4323.060000, 24.619500
4323.870000, 24.458000
4324.670000, 24.296400
4325.470000, 24.131600
4326.280000, 23.966000
4327.080000, 23.796700
4327.880000, 23.624400
4328.690000, 23.450300
4329.490000, 23.272100
4330.290000, 23.093800
4331.100000, 22.912900
4331.900000, 22.732200
4332.700000, 22.552000
4333.510000, 22.372000
4334.310000, 22.192800
4335.110000, 22.014100
4335.920000, 21.836000
4336.720000, 21.658800
4337.530000, 21.482100
4338.330000, 21.311000
4339.130000, 21.140000
4339.940000, 20.977300
4340.740000, 20.816800
4341.540000, 20.661000
4342.350000, 20.509600
4343.150000, 20.359100
4343.950000, 20.211500
4344.760000, 20.063800
4345.560000, 19.915000
4346.360000, 19.766200
4347.170000, 19.615900
4347.970000, 19.465200
4348.780000, 19.315900
4349.580000, 19.168100
4350.380000, 19.021600
4351.190000, 18.879600
4351.990000, 18.737800
4352.790000, 18.599400
4353.600000, 18.461400
4354.400000, 18.325000
4355.200000, 18.189500
4356.010000, 18.055500
4356.810000, 17.924100
4357.610000, 17.793300
4358.420000, 17.666800
4359.220000, 17.540300
4360.020000, 17.416500
4360.830000, 17.293400
4361.630000, 17.171600
4362.440000, 17.051100
4363.240000, 16.931300
4364.040000, 16.813800
4364.850000, 16.696300
4365.650000, 16.582300
4366.450000, 16.468500
4367.260000, 16.357300
4368.060000, 16.247400
4368.860000, 16.138500
4369.670000, 16.031200
4370.470000, 15.924100
4371.270000, 15.818600
4372.080000, 15.713100
4372.880000, 15.610100
4373.690000, 15.507700
4374.490000, 15.408500
4375.290000, 15.312200
4376.100000, 15.217600
4376.900000, 15.129100
4377.700000, 15.040700
4378.510000, 14.958600
4379.310000, 14.877100
4380.110000, 14.798800
4380.920000, 14.722400
4381.720000, 14.647300
4382.520000, 14.574900
4383.330000, 14.502600
4384.130000, 14.433400
4384.930000, 14.364200
4385.740000, 14.297200
4386.540000, 14.231200
4387.350000, 14.167000
4388.150000, 14.105500
4388.950000, 14.044600
4389.760000, 13.988000
4390.560000, 13.931500
4391.360000, 13.877600
4392.170000, 13.824300
4392.970000, 13.771800
4393.770000, 13.720300
4394.580000, 13.668900
4395.380000, 13.618800
4396.180000, 13.568700
4396.990000, 13.520800
4397.790000, 13.473400
4398.590000, 13.428300
4399.400000, 13.385500
4400.200000, 13.343700
4401.010000, 13.305900
4401.810000, 13.268100
4402.610000, 13.233400
4403.420000, 13.199200
4404.220000, 13.166300
4405.020000, 13.134500
4405.830000, 13.103200
4406.630000, 13.074000
4407.430000, 13.044700
4408.240000, 13.018800
4409.040000, 12.993400
4409.840000, 12.970300
4410.650000, 12.949200
4411.450000, 12.928800
4412.260000, 12.910800
4413.060000, 12.892800
4413.860000, 12.876700
4414.670000, 12.861000
4415.470000, 12.846700
4416.270000, 12.833800
4417.080000, 12.821500
4417.880000, 12.811700
4418.680000, 12.801800
4419.490000, 12.794100
4420.290000, 12.786600
4421.090000, 12.780400
4421.900000, 12.775300
4422.700000, 12.770700
4423.500000, 12.769300
4424.310000, 12.767800
4425.110000, 12.770000
4425.920000, 12.773100
4426.720000, 12.778200
4427.520000, 12.785400
4428.330000, 12.793100
4429.130000, 12.803400
4429.930000, 12.813800
4430.740000, 12.826500
4431.540000, 12.839900
4432.340000, 12.854800
4433.150000, 12.872100
4433.950000, 12.889500
4434.750000, 12.910200
4435.560000, 12.930800
4436.360000, 12.952700
4437.160000, 12.975100
4437.970000, 12.998000
4438.770000, 13.021600
4439.580000, 13.045300
4440.380000, 13.070800
4441.180000, 13.096500
4441.990000, 13.124100
4442.790000, 13.153000
4443.590000, 13.182800
4444.400000, 13.216000
4445.200000, 13.249200
4446.000000, 13.285700
4446.810000, 13.322800
4447.610000, 13.361200
4448.410000, 13.401100
4449.220000, 13.441200
4450.020000, 13.483500
4450.830000, 13.525800
4451.630000, 13.570200
4452.430000, 13.615200
4453.240000, 13.661400
4454.040000, 13.709500
4454.840000, 13.757500
4455.650000, 13.808300
4456.450000, 13.859100
4457.250000, 13.911200
4458.060000, 13.964300
4458.860000, 14.017900
4459.660000, 14.073200
4460.470000, 14.128600
4461.270000, 14.186200
4462.070000, 14.244400
4462.880000, 14.303800
4463.680000, 14.365100
4464.490000, 14.426500
4465.290000, 14.490700
4466.090000, 14.554900
4466.900000, 14.620600
4467.700000, 14.687200
4468.500000, 14.754000
4469.310000, 14.822000
4470.110000, 14.889900
4470.910000, 14.958500
4471.720000, 15.027300
4472.520000, 15.096700
4473.320000, 15.167000
4474.130000, 15.237300
4474.930000, 15.310400
4475.730000, 15.383400
4476.540000, 15.458400
4477.340000, 15.534400
4478.150000, 15.610900
4478.950000, 15.688900
4479.750000, 15.766900
4480.560000, 15.845600
4481.360000, 15.924400
4482.160000, 16.003600
4482.970000, 16.083200
4483.770000, 16.162700
4484.570000, 16.243200
4485.380000, 16.323800
4486.180000, 16.404600
4486.980000, 16.485700
4487.790000, 16.566800
4488.590000, 16.648200
4489.400000, 16.729600
4490.200000, 16.811800
4491.000000, 16.894200
4491.810000, 16.976900
4492.610000, 17.060400
4493.410000, 17.143800
4494.220000, 17.227100
4495.020000, 17.310400
4495.820000, 17.393200
4496.630000, 17.475500
4497.430000, 17.557700
4498.230000, 17.638800
4499.040000, 17.719800
4499.840000, 17.800400
4500.640000, 17.880600
4501.450000, 17.960800
4502.250000, 18.040800
4503.060000, 18.120800
4503.860000, 18.200900
4504.660000, 18.281000
4505.470000, 18.360900
4506.270000, 18.440300
4507.070000, 18.519700
4507.880000, 18.597300
4508.680000, 18.674700
4509.480000, 18.751100
4510.290000, 18.826200
4511.090000, 18.901300
4511.890000, 18.974600
4512.700000, 19.047900
4513.500000, 19.119900
4514.310000, 19.191100
4515.110000, 19.261900
4515.910000, 19.330600
4516.720000, 19.399200
4517.520000, 19.465800
4518.320000, 19.531700
4519.130000, 19.596900
4519.930000, 19.660200
4520.730000, 19.723500
4521.540000, 19.785300
4522.340000, 19.846500
4523.140000, 19.907000
4523.950000, 19.965800
4524.750000, 20.024600
4525.550000, 20.080100
4526.360000, 20.135100
4527.160000, 20.188400
4527.970000, 20.239400
4528.770000, 20.290300
4529.570000, 20.338600
4530.380000, 20.386700
4531.180000, 20.433800
4531.980000, 20.479700
4532.790000, 20.525400
4533.590000, 20.567500
4534.390000, 20.609500
4535.200000, 20.648400
4536.000000, 20.685000
4536.800000, 20.721000
4537.610000, 20.752600
4538.410000, 20.784200
4539.210000, 20.813400
4540.020000, 20.841200
4540.820000, 20.868500
4541.630000, 20.892900
4542.430000, 20.917300
4543.230000, 20.939400
4544.040000, 20.960400
4544.840000, 20.980700
4545.640000, 20.998400
4546.450000, 21.016000
4547.250000, 21.030800
4548.050000, 21.044500
4548.860000, 21.057200
4549.660000, 21.066800
4550.460000, 21.076400
4551.270000, 21.083000
4552.070000, 21.088700
4552.880000, 21.093300
4553.680000, 21.095100
4554.480000, 21.097000
4555.290000, 21.095600
4556.090000, 21.093300
4556.890000, 21.090000
4557.700000, 21.083900
4558.500000, 21.077900
4559.300000, 21.068800
4560.110000, 21.059000
4560.910000, 21.048000
4561.710000, 21.034400
4562.520000, 21.020800
4563.320000, 21.004500
4564.120000, 20.987700
4564.930000, 20.970100
4565.730000, 20.950800
4566.540000, 20.931700
4567.340000, 20.910400
4568.140000, 20.888800
4568.950000, 20.866100
4569.750000, 20.841100
4570.550000, 20.816200
4571.360000, 20.788500
4572.160000, 20.760200
4572.960000, 20.731100
4573.770000, 20.699900
4574.570000, 20.668800
4575.370000, 20.634900
4576.180000, 20.600400
4576.980000, 20.565000
4577.780000, 20.527300
4578.590000, 20.489500
4579.390000, 20.450300
4580.200000, 20.410700
4581.000000, 20.370800
4581.800000, 20.330100
4582.610000, 20.289300
4583.410000, 20.247300
4584.210000, 20.204800
4585.020000, 20.161700
4585.820000, 20.116700
4586.620000, 20.071600
4587.430000, 20.024600
4588.230000, 19.976800
4589.030000, 19.928700
4589.840000, 19.878700
4590.640000, 19.828800
4591.450000, 19.778300
4592.250000, 19.727500
4593.050000, 19.676700
4593.860000, 19.625400
4594.660000, 19.574000
4595.460000, 19.522000
4596.270000, 19.469400
4597.070000, 19.416700
4597.870000, 19.362700
4598.680000, 19.308800
4599.480000, 19.254000
4600.280000, 19.198600
4601.090000, 19.143100
4601.890000, 19.085800
4602.690000, 19.028500
4603.500000, 18.970600
4604.300000, 18.912000
4605.110000, 18.853400
4605.910000, 18.794600
4606.710000, 18.735900
4607.520000, 18.677200
4608.320000, 18.618800
4609.120000, 18.560300
4609.930000, 18.501700
4610.730000, 18.443100
4611.530000, 18.384400
4612.340000, 18.325400
4613.140000, 18.266300
4613.940000, 18.206700
4614.750000, 18.146700
4615.550000, 18.086500
4616.360000, 18.024800
4617.160000, 17.963200
4617.960000, 17.900800
4618.770000, 17.837800
4619.570000, 17.774900
4620.370000, 17.712300
4621.180000, 17.649800
4621.980000, 17.587900
4622.780000, 17.526900
4623.590000, 17.465900
4624.390000, 17.406000
4625.190000, 17.346300
4626.000000, 17.286400
4626.800000, 17.226100
4627.600000, 17.165800
4628.410000, 17.103800
4629.210000, 17.041200
4630.020000, 16.978300
4630.820000, 16.914200
4631.620000, 16.850200
4632.430000, 16.786500
4633.230000, 16.723200
4634.030000, 16.660000
4634.840000, 16.598200
4635.640000, 16.536400
4636.440000, 16.475000
4637.250000, 16.414000
4638.050000, 16.353000
4638.850000, 16.291500
4639.660000, 16.229900
4640.460000, 16.168000
4641.260000, 16.105000
4642.070000, 16.041900
4642.870000, 15.978200
4643.680000, 15.914100
4644.480000, 15.850000
4645.280000, 15.786300
4646.090000, 15.722600
4646.890000, 15.659500
4647.690000, 15.596900
4648.500000, 15.534400
4649.300000, 15.472200
4650.100000, 15.410000
4650.910000, 15.347400
4651.710000, 15.284200
4652.510000, 15.221000
4653.320000, 15.157100
4654.120000, 15.092900
4654.930000, 15.028600
4655.730000, 14.964100
4656.530000, 14.899700
4657.340000, 14.835300
4658.140000, 14.771000
4658.940000, 14.706800
4659.750000, 14.642200
4660.550000, 14.577700
4661.350000, 14.512800
4662.160000, 14.447100
4662.960000, 14.381400
4663.760000, 14.314300
4664.570000, 14.246700
4665.370000, 14.178800
4666.170000, 14.109700
4666.980000, 14.040600
4667.780000, 13.971600
4668.590000, 13.902800
4669.390000, 13.833900
4670.190000, 13.765600
4671.000000, 13.697400
4671.800000, 13.629000
4672.600000, 13.560200
4673.410000, 13.491500
4674.210000, 13.422100
4675.010000, 13.352400
4675.820000, 13.282700
4676.620000, 13.211700
4677.420000, 13.140800
4678.230000, 13.068900
4679.030000, 12.995700
4679.830000, 12.922500
4680.640000, 12.847500
4681.440000, 12.772100
4682.250000, 12.696500
4683.050000, 12.620200
4683.850000, 12.543900
4684.660000, 12.467300
4685.460000, 12.390300
4686.260000, 12.313400
4687.070000, 12.234900
4687.870000, 12.156100
4688.670000, 12.077000
4689.480000, 11.996700
4690.280000, 11.916300
4691.080000, 11.835200
4691.890000, 11.753500
4692.690000, 11.671900
4693.500000, 11.587900
4694.300000, 11.503800
4695.100000, 11.418800
4695.910000, 11.331800
4696.710000, 11.244800
4697.510000, 11.156700
4698.320000, 11.068100
4699.120000, 10.979500
4699.920000, 10.890300
4700.730000, 10.801100
4701.530000, 10.711700
4702.330000, 10.622000
4703.140000, 10.532300
4703.940000, 10.441800
4704.740000, 10.351100
4705.550000, 10.260200
4706.350000, 10.167100
4707.160000, 10.074000
4707.960000, 9.979430
4708.760000, 9.882660
4709.570000, 9.785930
4710.370000, 9.686960
4711.170000, 9.587200
4711.980000, 9.487380
4712.780000, 9.386340
4713.580000, 9.285330
4714.390000, 9.184010
4715.190000, 9.082240
4715.990000, 8.980510
4716.800000, 8.877660
4717.600000, 8.774440
4718.410000, 8.671100
4719.210000, 8.565760
4720.010000, 8.460450
4720.820000, 8.354410
4721.620000, 8.247250
4722.420000, 8.140130
4723.230000, 8.032320
4724.030000, 7.924270
4724.830000, 7.816210
4725.640000, 7.707450
4726.440000, 7.598720
4727.240000, 7.489570
4728.050000, 7.379660
4728.850000, 7.269790
4729.650000, 7.159320
4730.460000, 7.048580
4731.260000, 6.937890
4732.070000, 6.827090
4732.870000, 6.716340
4733.670000, 6.605610
4734.480000, 6.494930
4735.280000, 6.384290
4736.080000, 6.273690
4736.890000, 6.163140
4737.690000, 6.052630
4738.490000, 5.942500
4739.300000, 5.832420
4740.100000, 5.722490
4740.900000, 5.612950
4741.710000, 5.503440
4742.510000, 5.394200
4743.310000, 5.285180
4744.120000, 5.176190
4744.920000, 5.067930
4745.730000, 4.959850
4746.530000, 4.852010
4747.330000, 4.745590
4748.140000, 4.639210
4748.940000, 4.533780
4749.740000, 4.429600
4750.550000, 4.325450
4751.350000, 4.223100
4752.150000, 4.121450
4752.960000, 4.019870
4753.760000, 3.921120
4754.560000, 3.822400
4755.370000, 3.724570
4756.170000, 3.628780
4756.980000, 3.533030
4757.780000, 3.439000
4758.580000, 3.346210
4759.390000, 3.253450
4760.190000, 3.163900
4760.990000, 3.074860
4761.800000, 2.986440
4762.600000, 2.901430
4763.400000, 2.816450
4764.210000, 2.732880
4765.010000, 2.651180
4765.810000, 2.569510
4766.620000, 2.489910
4767.420000, 2.411200
4768.220000, 2.332520
4769.030000, 2.257210
4769.830000, 2.182010
4770.640000, 2.107870
4771.440000, 2.036940
4772.240000, 1.966040
4773.050000, 1.897570
4773.850000, 1.831380
4774.650000, 1.765220
4775.460000, 1.702290
4776.260000, 1.640300
4777.060000, 1.578470
4777.870000, 1.520090
4778.670000, 1.461730
4779.470000, 1.404520
4780.280000, 1.349970
4781.080000, 1.295440
4781.880000, 1.243130
4782.690000, 1.192560
4783.490000, 1.142010
4784.300000, 1.095000
4785.100000, 1.048800
4785.900000, 1.002940
4786.710000, 0.961537
4787.510000, 0.920146
4788.310000, 0.880048
4789.120000, 0.842689
4789.920000, 0.805342
4790.720000, 0.769755
4791.530000, 0.735513
4792.330000, 0.701282
4793.130000, 0.669523
4793.940000, 0.638343
4794.740000, 0.607339
4795.550000, 0.579180
4796.350000, 0.551031
4797.150000, 0.523790
4797.960000, 0.498704
4798.760000, 0.473628
4799.560000, 0.450121
4800.370000, 0.427994
4801.170000, 0.405873
4801.970000, 0.385336
4802.780000, 0.365283
4803.580000, 0.345237
4804.380000, 0.327018
4805.190000, 0.308804
4805.990000, 0.291260
4806.790000, 0.275946
4807.600000, 0.260636
4808.400000, 0.246689
4809.210000, 0.234357
4810.010000, 0.222029
4810.810000, 0.210459
4811.620000, 0.199245
4812.420000, 0.188035
4813.220000, 0.177034
4814.030000, 0.166060
4814.830000, 0.155298
4815.630000, 0.146025
4816.440000, 0.136755
4817.240000, 0.128349
4818.040000, 0.121612
4818.850000, 0.114876
4819.650000, 0.108825
4820.450000, 0.103323
4821.260000, 0.097822
4822.060000, 0.092384
4822.870000, 0.086966
4823.670000, 0.081550
4824.470000, 0.076588
4825.280000, 0.071639
4826.080000, 0.066901
4826.880000, 0.063103
4827.690000, 0.059306
4828.490000, 0.055856
4829.290000, 0.052956
4830.100000, 0.050057
4830.900000, 0.047196
4831.700000, 0.044363
4832.510000, 0.041531
4833.310000, 0.038814
4834.120000, 0.036130
4834.920000, 0.033447
4835.720000, 0.031778
4836.530000, 0.030128
4837.330000, 0.028643
4838.130000, 0.027927
4838.940000, 0.027212
4839.740000, 0.026448
4840.540000, 0.025601
4841.350000, 0.024754
4842.150000, 0.023681
4842.950000, 0.022428
4843.760000, 0.021176
4844.560000, 0.020308
4845.360000, 0.019574
4846.170000, 0.018840
4846.970000, 0.018744
4847.780000, 0.018701
4848.580000, 0.018611
4849.380000, 0.018121
4850.190000, 0.017631
4850.990000, 0.016939
4851.790000, 0.015735
4852.600000, 0.014530
4853.400000, 0.013422
4854.200000, 0.012427
4855.010000, 0.011432
4855.810000, 0.010500
4856.610000, 0.009606
4857.420000, 0.008712
4858.220000, 0.007312
4859.030000, 0.005787
4859.830000, 0.004262
4860.630000, 0.002893
4861.440000, 0.001530
4862.240000, 0.000366
4863.040000, 0.000504
4863.850000, 0.000642
4864.650000, 0.001128
4865.450000, 0.002453
4866.260000, 0.003778
4867.060000, 0.004953
4867.860000, 0.005950
4868.670000, 0.006945
4869.470000, 0.007274
4870.270000, 0.007176
4871.080000, 0.007077
4871.880000, 0.006608
4872.690000, 0.006024
4873.490000, 0.005440
4874.290000, 0.005111
4875.100000, 0.004806
4875.900000, 0.004504
4876.700000, 0.004249
4877.510000, 0.003993
4878.310000, 0.003676
4879.110000, 0.003124
4879.920000, 0.002572
4880.720000, 0.002126
4881.520000, 0.001875
4882.330000, 0.001625
4883.130000, 0.001658
4883.930000, 0.001985
4884.740000, 0.002311
4885.540000, 0.002515
4886.350000, 0.002649
4887.150000, 0.002782
4887.950000, 0.002492
4888.760000, 0.002072
4889.560000, 0.001652
4890.360000, 0.001362
4891.170000, 0.001085
4891.970000, 0.000826
4892.770000, 0.001144
4893.580000, 0.001463
4894.380000, 0.001768
4895.180000, 0.002000
4895.990000, 0.002232
4896.790000, 0.002314
4897.600000, 0.002011
4898.400000, 0.001708
4899.200000, 0.001479
4900.010000, 0.001361
4900.810000, 0.001243
4901.610000, 0.001429
4902.420000, 0.001896
4903.220000, 0.002363
4904.020000, 0.002806
4904.830000, 0.003233
4905.630000, 0.003661
4906.430000, 0.003737
4907.240000, 0.003695
4908.040000, 0.003653
4908.840000, 0.003560
4909.650000, 0.003459
4910.450000, 0.003358
4911.260000, 0.003788
4912.060000, 0.004236
4912.860000, 0.004710
4913.670000, 0.005518
4914.470000, 0.006326
4915.270000, 0.007022
4916.080000, 0.007190
4916.880000, 0.007358
4917.680000, 0.007261
4918.490000, 0.006458
4919.290000, 0.005656
4920.090000, 0.004871
4920.900000, 0.004117
4921.700000, 0.003362
4922.500000, 0.003056
4923.310000, 0.003266
4924.110000, 0.003476
4924.920000, 0.003932
4925.720000, 0.004585
4926.520000, 0.005237
4927.330000, 0.005394
4928.130000, 0.005280
4928.930000, 0.005166
4929.740000, 0.004416
4930.540000, 0.003433
4931.340000, 0.002449
4932.150000, 0.001663
4932.950000, 0.000922
4933.750000, 0.000181
4934.560000, 0.000167
4935.360000, 0.000239
4936.170000, 0.000312
4936.970000, 0.000646
4937.770000, 0.000988
4938.580000, 0.001331
4939.380000, 0.001704
4940.180000, 0.002078
4940.990000, 0.002494
4941.790000, 0.003227
4942.590000, 0.003960
4943.400000, 0.004694
4944.200000, 0.005437
4945.000000, 0.006180
4945.810000, 0.006697
4946.610000, 0.006550
4947.410000, 0.006403
4948.220000, 0.005983
4949.020000, 0.004974
4949.830000, 0.003965
4950.630000, 0.003126
4951.430000, 0.002562
4952.240000, 0.001998
4953.040000, 0.001905
4953.840000, 0.002419
4954.650000, 0.002932
4955.450000, 0.003323
4956.250000, 0.003589
4957.060000, 0.003854
4957.860000, 0.003502
4958.660000, 0.002632
4959.470000, 0.001762
4960.270000, 0.001125
4961.080000, 0.000649
4961.880000, 0.000172
4962.680000, 0.000253
4963.490000, 0.000648
4964.290000, 0.001042
4965.090000, 0.001664
4965.900000, 0.002392
4966.700000, 0.003120
4967.500000, 0.003547
4968.310000, 0.003861
4969.110000, 0.004174
4969.910000, 0.004752
4970.720000, 0.005412
4971.520000, 0.006072
4972.320000, 0.007264
4973.130000, 0.008590
4973.930000, 0.009915
4974.740000, 0.010886
4975.540000, 0.011784
4976.340000, 0.012681
4977.150000, 0.012300
4977.950000, 0.011711
4978.750000, 0.011123
4979.560000, 0.009719
4980.360000, 0.008213
4981.160000, 0.006707
4981.970000, 0.005809
4982.770000, 0.004970
4983.570000, 0.004132
4984.380000, 0.004551
4985.180000, 0.005062
4985.980000, 0.005572
4986.790000, 0.006583
4987.590000, 0.007619
4988.400000, 0.008656
4989.200000, 0.009101
4990.000000, 0.009525
4990.810000, 0.009949
4991.610000, 0.009431
4992.410000, 0.008894
4993.220000, 0.008356
4994.020000, 0.007324
4994.820000, 0.006287
4995.630000, 0.005250
4996.430000, 0.004391
4997.230000, 0.003533
4998.040000, 0.002675
4998.840000, 0.002343
4999.650000, 0.002011
5000.000000, 0.001680
