# Wavelength  (nm), Transmission (%)
200.000000, 0.000669
201.000000, 0.000667
202.000000, 0.000688
203.000000, 0.000672
204.000000, 0.000640
205.000000, 0.000644
206.000000, 0.000626
207.000000, 0.000638
208.000000, 0.000596
209.000000, 0.000605
210.000000, 0.000601
211.000000, 0.000574
212.000000, 0.000572
213.000000, 0.000562
214.000000, 0.000559
215.000000, 0.000547
216.000000, 0.000561
217.000000, 0.000570
218.000000, 0.000565
219.000000, 0.000542
220.000000, 0.000535
221.000000, 0.000547
222.000000, 0.000546
223.000000, 0.000555
224.000000, 0.000535
225.000000, 0.000515
226.000000, 0.000526
227.000000, 0.000531
228.000000, 0.000523
229.000000, 0.000521
230.000000, 0.000505
231.000000, 0.000498
232.000000, 0.000489
233.000000, 0.000474
234.000000, 0.000468
235.000000, 0.000439
236.000000, 0.000442
237.000000, 0.000443
238.000000, 0.000430
239.000000, 0.000412
240.000000, 0.000406
241.000000, 0.000409
242.000000, 0.000401
243.000000, 0.000401
244.000000, 0.000379
245.000000, 0.000374
246.000000, 0.000379
247.000000, 0.000375
248.000000, 0.000370
249.000000, 0.000366
250.000000, 0.000380
251.000000, 0.000369
252.000000, 0.000360
253.000000, 0.000365
254.000000, 0.000367
255.000000, 0.000362
256.000000, 0.000367
257.000000, 0.000372
258.000000, 0.000361
259.000000, 0.000361
260.000000, 0.000384
261.000000, 0.000373
262.000000, 0.000364
263.000000, 0.000369
264.000000, 0.000383
265.000000, 0.000368
266.000000, 0.000372
267.000000, 0.000377
268.000000, 0.000383
269.000000, 0.000364
270.000000, 0.000364
271.000000, 0.000366
272.000000, 0.000364
273.000000, 0.000378
274.000000, 0.000358
275.000000, 0.000354
276.000000, 0.000336
277.000000, 0.000357
278.000000, 0.000363
279.000000, 0.000352
280.000000, 0.000361
281.000000, 0.000355
282.000000, 0.000343
283.000000, 0.000338
284.000000, 0.000334
285.000000, 0.000333
286.000000, 0.000335
287.000000, 0.000324
288.000000, 0.000321
289.000000, 0.000313
290.000000, 0.000310
291.000000, 0.000291
292.000000, 0.000281
293.000000, 0.000277
294.000000, 0.000289
295.000000, 0.000265
296.000000, 0.000244
297.000000, 0.000238
298.000000, 0.000228
299.000000, 0.000222
300.000000, 0.000198
301.000000, 0.000191
302.000000, 0.000182
303.000000, 0.000167
304.000000, 0.000182
305.000000, 0.000156
306.000000, 0.000127
307.000000, 0.000130
308.000000, 0.000104
309.000000, 0.000128
310.000000, 0.000090
311.000000, 0.000096
312.000000, 0.000082
313.000000, 0.000086
314.000000, 0.000061
315.000000, 0.000080
316.000000, 0.000052
317.000000, 0.000058
318.000000, 0.000041
319.000000, 0.000054
320.000000, 0.000056
321.000000, 0.000029
322.000000, 0.000048
323.000000, 0.000022
324.000000, 0.000028
325.000000, 0.000042
326.000000, 0.000027
327.000000, 0.000015
328.000000, 0.000034
329.000000, 0.000031
330.000000, 0.000014
331.000000, 0.000018
332.000000, 0.000024
333.000000, 0.000014
334.000000, 0.000003
335.000000, 0.000007
336.000000, 0.000016
337.000000, 0.000007
338.000000, 0.000029
339.000000, 0.000012
340.000000, 0.000005
341.000000, 0.000018
342.000000, 0.000011
343.000000, 0.000021
344.000000, 0.000001
345.000000, 0.000011
346.000000, 0.000010
347.000000, 0.000022
348.000000, 0.000011
349.000000, -0.000124
350.000000, 0.000013
351.000000, 0.000035
352.000000, 0.000017
353.000000, 0.000006
354.000000, 0.000024
355.000000, 0.000013
356.000000, 0.000024
357.000000, 0.000028
358.000000, 0.000004
359.000000, 0.000028
360.000000, 0.000010
361.000000, 0.000022
362.000000, 0.000015
363.000000, 0.000011
364.000000, 0.000021
365.000000, 0.000025
366.000000, 0.000023
367.000000, 0.000010
368.000000, 0.000016
369.000000, 0.000025
370.000000, 0.000020
371.000000, 0.000008
372.000000, 0.000026
373.000000, 0.000023
374.000000, 0.000029
375.000000, 0.000029
376.000000, 0.000024
377.000000, 0.000026
378.000000, 0.000036
379.000000, 0.000034
380.000000, 0.000037
381.000000, 0.000036
382.000000, 0.000032
383.000000, 0.000025
384.000000, 0.000041
385.000000, 0.000048
386.000000, 0.000042
387.000000, 0.000041
388.000000, 0.000042
389.000000, 0.000017
390.000000, 0.000033
391.000000, 0.000033
392.000000, 0.000034
393.000000, 0.000042
394.000000, 0.000041
395.000000, 0.000051
396.000000, 0.000048
397.000000, 0.000039
398.000000, 0.000037
399.000000, 0.000017
400.000000, 0.000031
401.000000, 0.000036
402.000000, 0.000044
403.000000, 0.000053
404.000000, 0.000063
405.000000, 0.000037
406.000000, 0.000049
407.000000, 0.000036
408.000000, 0.000040
409.000000, 0.000033
410.000000, 0.000043
411.000000, 0.000043
412.000000, 0.000046
413.000000, 0.000020
414.000000, 0.000029
415.000000, 0.000023
416.000000, 0.000019
417.000000, 0.000008
418.000000, 0.000028
419.000000, 0.000033
420.000000, 0.000033
421.000000, 0.000048
422.000000, 0.000054
423.000000, 0.000027
424.000000, 0.000019
425.000000, 0.000022
426.000000, 0.000009
427.000000, 0.000011
428.000000, 0.000020
429.000000, 0.000026
430.000000, 0.000039
431.000000, 0.000041
432.000000, 0.000040
433.000000, 0.000028
434.000000, 0.000020
435.000000, 0.000017
436.000000, 0.000005
437.000000, 0.000015
438.000000, 0.000018
439.000000, 0.000027
440.000000, 0.000032
441.000000, 0.000021
442.000000, 0.000020
443.000000, 0.000014
444.000000, 0.000014
445.000000, 0.000007
446.000000, 0.000015
447.000000, 0.000015
448.000000, 0.000007
449.000000, 0.000019
450.000000, 0.000020
451.000000, 0.000022
452.000000, 0.000014
453.000000, 0.000016
454.000000, 0.000011
455.000000, 0.000011
456.000000, 0.000015
457.000000, 0.000015
458.000000, 0.000024
459.000000, 0.000031
460.000000, 0.000019
461.000000, 0.000015
462.000000, 0.000021
463.000000, 0.000025
464.000000, 0.000017
465.000000, 0.000007
466.000000, 0.000012
467.000000, 0.000016
468.000000, 0.000009
469.000000, 0.000009
470.000000, 0.000015
471.000000, 0.000010
472.000000, 0.000013
473.000000, 0.000008
474.000000, 0.000013
475.000000, 0.000007
476.000000, 0.000012
477.000000, 0.000011
478.000000, 0.000003
479.000000, 0.000007
480.000000, 0.000013
481.000000, 0.000013
482.000000, 0.000007
483.000000, 0.000008
484.000000, 0.000007
485.000000, 0.000006
486.000000, 0.000010
487.000000, 0.000009
488.000000, 0.000010
489.000000, 0.000006
490.000000, 0.000012
491.000000, 0.000008
492.000000, 0.000008
493.000000, 0.000011
494.000000, 0.000008
495.000000, 0.000005
496.000000, 0.000008
497.000000, 0.000008
498.000000, 0.000014
499.000000, 0.000011
500.000000, 0.000008
501.000000, 0.000011
502.000000, 0.000009
503.000000, 0.000009
504.000000, 0.000013
505.000000, 0.000003
506.000000, 0.000008
507.000000, 0.000014
508.000000, 0.000006
509.000000, 0.000010
510.000000, 0.000014
511.000000, 0.000011
512.000000, 0.000008
513.000000, 0.000011
514.000000, 0.000013
515.000000, 0.000008
516.000000, 0.000010
517.000000, 0.000010
518.000000, 0.000008
519.000000, 0.000008
520.000000, 0.000008
521.000000, 0.000007
522.000000, 0.000011
523.000000, 0.000007
524.000000, 0.000012
525.000000, 0.000007
526.000000, 0.000011
527.000000, 0.000014
528.000000, 0.000006
529.000000, 0.000009
530.000000, 0.000012
531.000000, 0.000010
532.000000, 0.000014
533.000000, 0.000010
534.000000, 0.000002
535.000000, 0.000015
536.000000, 0.000010
537.000000, 0.000005
538.000000, 0.000012
539.000000, 0.000011
540.000000, 0.000013
541.000000, 0.000012
542.000000, 0.000018
543.000000, 0.000015
544.000000, 0.000012
545.000000, 0.000013
546.000000, 0.000006
547.000000, 0.000011
548.000000, 0.000015
549.000000, 0.000008
550.000000, 0.000011
551.000000, 0.000012
552.000000, 0.000012
553.000000, 0.000018
554.000000, 0.000013
555.000000, 0.000013
556.000000, 0.000017
557.000000, 0.000015
558.000000, 0.000021
559.000000, 0.000017
560.000000, 0.000014
561.000000, 0.000023
562.000000, 0.000018
563.000000, 0.000013
564.000000, 0.000019
565.000000, 0.000011
566.000000, 0.000021
567.000000, 0.000018
568.000000, 0.000019
569.000000, 0.000011
570.000000, 0.000021
571.000000, 0.000021
572.000000, 0.000013
573.000000, 0.000005
574.000000, 0.000019
575.000000, 0.000023
576.000000, 0.000015
577.000000, 0.000020
578.000000, 0.000022
579.000000, 0.000018
580.000000, 0.000019
581.000000, 0.000018
582.000000, 0.000029
583.000000, 0.000015
584.000000, 0.000012
585.000000, 0.000026
586.000000, 0.000016
587.000000, 0.000018
588.000000, 0.000018
589.000000, 0.000019
590.000000, 0.000015
591.000000, 0.000025
592.000000, 0.000021
593.000000, 0.000010
594.000000, 0.000017
595.000000, 0.000016
596.000000, 0.000021
597.000000, 0.000022
598.000000, 0.000018
599.000000, 0.000026
600.000000, 0.000020
601.000000, 0.000020
602.000000, 0.000030
603.000000, 0.000029
604.000000, 0.000026
605.000000, 0.000032
606.000000, 0.000025
607.000000, 0.000022
608.000000, 0.000032
609.000000, 0.000032
610.000000, 0.000027
611.000000, 0.000033
612.000000, 0.000031
613.000000, 0.000052
614.000000, 0.000038
615.000000, 0.000047
616.000000, 0.000049
617.000000, 0.000056
618.000000, 0.000079
619.000000, 0.000073
620.000000, 0.000092
621.000000, 0.000119
622.000000, 0.000144
623.000000, 0.000189
624.000000, 0.000251
625.000000, 0.000335
626.000000, 0.000457
627.000000, 0.000622
628.000000, 0.000887
629.000000, 0.001234
630.000000, 0.001804
631.000000, 0.002639
632.000000, 0.003910
633.000000, 0.005888
634.000000, 0.008972
635.000000, 0.013860
636.000000, 0.021682
637.000000, 0.034545
638.000000, 0.056300
639.000000, 0.093679
640.000000, 0.159774
641.000000, 0.279217
642.000000, 0.500723
643.000000, 0.946968
644.000000, 1.826657
645.000000, 3.634684
646.000000, 7.408828
647.000000, 14.810146
648.000000, 27.992958
649.000000, 46.402096
650.000000, 65.302643
651.000000, 79.141342
652.000000, 85.765442
653.000000, 87.608353
654.000000, 87.513672
655.000000, 86.862907
656.000000, 86.027786
657.000000, 85.115028
658.000000, 84.191452
659.000000, 83.343323
660.000000, 82.658554
661.000000, 82.291756
662.000000, 82.208809
663.000000, 82.407631
664.000000, 82.883598
665.000000, 83.477791
666.000000, 84.117722
667.000000, 84.722809
668.000000, 85.220123
669.000000, 85.567802
670.000000, 85.783272
671.000000, 85.913239
672.000000, 85.901466
673.000000, 85.869789
674.000000, 85.871529
675.000000, 85.856422
676.000000, 85.882538
677.000000, 85.993561
678.000000, 86.167915
679.000000, 86.336311
680.000000, 86.550209
681.000000, 86.774376
682.000000, 86.975906
683.000000, 87.157654
684.000000, 87.226143
685.000000, 87.265663
686.000000, 87.270325
687.000000, 87.214775
688.000000, 87.116394
689.000000, 87.004906
690.000000, 86.877205
691.000000, 86.810379
692.000000, 86.735413
693.000000, 86.651283
694.000000, 86.670753
695.000000, 86.689674
696.000000, 86.797173
697.000000, 86.900322
698.000000, 87.016014
699.000000, 87.148132
700.000000, 87.294929
701.000000, 87.392319
702.000000, 87.421425
703.000000, 87.430466
704.000000, 87.342438
705.000000, 87.270996
706.000000, 87.080917
707.000000, 86.781746
708.000000, 86.434288
709.000000, 86.106247
710.000000, 85.675499
711.000000, 85.228622
712.000000, 84.802673
713.000000, 84.366669
714.000000, 83.950623
715.000000, 83.537605
716.000000, 83.144035
717.000000, 82.830688
718.000000, 82.656792
719.000000, 82.423515
720.000000, 82.245743
721.000000, 82.162056
722.000000, 82.039993
723.000000, 82.029213
724.000000, 82.025726
725.000000, 81.998825
726.000000, 82.131821
727.000000, 82.140442
728.000000, 82.257095
729.000000, 82.320198
730.000000, 82.378693
731.000000, 82.441399
732.000000, 82.477371
733.000000, 82.504524
734.000000, 82.528481
735.000000, 82.529701
736.000000, 82.516167
737.000000, 82.531487
738.000000, 82.483864
739.000000, 82.462029
740.000000, 82.446793
741.000000, 82.427155
742.000000, 82.447853
743.000000, 82.454422
744.000000, 82.446564
745.000000, 82.473557
746.000000, 82.509903
747.000000, 82.565399
748.000000, 82.659714
749.000000, 82.692810
750.000000, 82.736053
751.000000, 82.817810
752.000000, 82.937752
753.000000, 82.989883
754.000000, 83.026665
755.000000, 83.091049
756.000000, 83.101768
757.000000, 83.125816
758.000000, 83.106766
759.000000, 83.027008
760.000000, 82.984497
761.000000, 82.908951
762.000000, 82.767151
763.000000, 82.651314
764.000000, 82.471039
765.000000, 82.336082
766.000000, 82.189575
767.000000, 82.011734
768.000000, 81.804153
769.000000, 81.607124
770.000000, 81.457787
771.000000, 81.349670
772.000000, 81.167290
773.000000, 81.043091
774.000000, 80.910469
775.000000, 80.935150
776.000000, 80.959480
777.000000, 80.883118
778.000000, 80.842224
779.000000, 80.943710
780.000000, 81.107758
781.000000, 81.171051
782.000000, 81.314278
783.000000, 81.508415
784.000000, 81.723175
785.000000, 81.939247
786.000000, 82.210968
787.000000, 82.420464
788.000000, 82.651077
789.000000, 82.939987
790.000000, 83.229233
791.000000, 83.476532
792.000000, 83.742073
793.000000, 84.031242
794.000000, 84.216606
795.000000, 84.461090
796.000000, 84.667137
797.000000, 84.853165
798.000000, 84.976410
799.000000, 85.054863
800.000000, 84.490273
801.000000, 84.522781
802.000000, 84.774193
803.000000, 84.737083
804.000000, 84.799164
805.000000, 84.876610
806.000000, 84.908028
807.000000, 85.033783
808.000000, 84.932838
809.000000, 85.077911
810.000000, 84.987053
811.000000, 85.011337
812.000000, 85.015999
813.000000, 85.057999
814.000000, 85.036720
815.000000, 85.059456
816.000000, 85.116699
817.000000, 85.146431
818.000000, 85.043915
819.000000, 85.105202
820.000000, 85.091415
821.000000, 85.078880
822.000000, 85.016075
823.000000, 85.001114
824.000000, 85.011597
825.000000, 84.955338
826.000000, 84.890327
827.000000, 84.862625
828.000000, 84.654465
829.000000, 84.572960
830.000000, 84.487228
831.000000, 84.359711
832.000000, 84.102028
833.000000, 83.835983
834.000000, 83.744919
835.000000, 83.421585
836.000000, 83.201996
837.000000, 82.986519
838.000000, 82.589836
839.000000, 82.371063
840.000000, 82.153740
841.000000, 81.847252
842.000000, 81.532234
843.000000, 81.172600
844.000000, 80.883736
845.000000, 80.693726
846.000000, 80.417625
847.000000, 80.106529
848.000000, 79.897858
849.000000, 79.657829
850.000000, 79.466400
851.000000, 79.239143
852.000000, 79.070343
853.000000, 78.912750
854.000000, 78.827110
855.000000, 78.724136
856.000000, 78.667137
857.000000, 78.588554
858.000000, 78.609940
859.000000, 78.671646
860.000000, 78.662407
861.000000, 78.742180
862.000000, 78.879204
863.000000, 79.025627
864.000000, 79.185814
865.000000, 79.292992
866.000000, 79.490059
867.000000, 79.554680
868.000000, 79.806694
869.000000, 80.038330
870.000000, 80.173439
871.000000, 80.404854
872.000000, 80.650047
873.000000, 80.781937
874.000000, 81.092201
875.000000, 81.252731
876.000000, 81.429657
877.000000, 81.543938
878.000000, 81.788261
879.000000, 81.855164
880.000000, 81.964554
881.000000, 81.929634
882.000000, 82.075531
883.000000, 82.002190
884.000000, 82.026413
885.000000, 81.978210
886.000000, 81.874557
887.000000, 81.838387
888.000000, 81.645027
889.000000, 81.554001
890.000000, 81.333611
891.000000, 81.060478
892.000000, 80.886620
893.000000, 80.687675
894.000000, 80.443291
895.000000, 80.103767
896.000000, 79.788216
897.000000, 79.524841
898.000000, 79.376289
899.000000, 79.072815
900.000000, 78.805733
901.000000, 78.556305
902.000000, 78.281898
903.000000, 78.101379
904.000000, 77.831108
905.000000, 77.590523
906.000000, 77.491074
907.000000, 77.357414
908.000000, 77.102425
909.000000, 76.982391
910.000000, 76.888229
911.000000, 76.868149
912.000000, 76.748802
913.000000, 76.803764
914.000000, 76.743561
915.000000, 76.717789
916.000000, 76.835129
917.000000, 76.775116
918.000000, 76.929367
919.000000, 76.971817
920.000000, 77.154007
921.000000, 77.321556
922.000000, 77.529716
923.000000, 77.568680
924.000000, 77.783470
925.000000, 78.006645
926.000000, 78.196205
927.000000, 78.443512
928.000000, 78.596992
929.000000, 78.849121
930.000000, 78.992226
931.000000, 79.245560
932.000000, 79.453072
933.000000, 79.631859
934.000000, 79.953804
935.000000, 80.058838
936.000000, 80.158531
937.000000, 80.285866
938.000000, 80.495247
939.000000, 80.671173
940.000000, 80.762581
941.000000, 80.768044
942.000000, 80.926964
943.000000, 81.023781
944.000000, 81.029266
945.000000, 81.087524
946.000000, 81.033989
947.000000, 81.092331
948.000000, 81.050735
949.000000, 80.932182
950.000000, 80.951019
951.000000, 80.920654
952.000000, 80.812477
953.000000, 80.805283
954.000000, 80.663208
955.000000, 80.547195
956.000000, 80.334267
957.000000, 80.282005
958.000000, 80.197128
959.000000, 80.124542
960.000000, 80.006111
961.000000, 79.825447
962.000000, 79.741165
963.000000, 79.704697
964.000000, 79.546005
965.000000, 79.436218
966.000000, 79.411675
967.000000, 79.163910
968.000000, 79.159088
969.000000, 79.035706
970.000000, 78.954193
971.000000, 78.952286
972.000000, 78.848495
973.000000, 78.839073
974.000000, 78.853081
975.000000, 78.904053
976.000000, 78.934502
977.000000, 78.841774
978.000000, 78.934059
979.000000, 78.967804
980.000000, 79.093399
981.000000, 79.133698
982.000000, 79.105263
983.000000, 79.252167
984.000000, 79.352661
985.000000, 79.445557
986.000000, 79.692039
987.000000, 79.763405
988.000000, 79.796738
989.000000, 80.003494
990.000000, 79.997978
991.000000, 80.262360
992.000000, 80.277534
993.000000, 80.501343
994.000000, 80.623749
995.000000, 80.810722
996.000000, 80.940178
997.000000, 81.167610
998.000000, 81.168541
999.000000, 81.316750
1000.000000, 81.428581
1001.000000, 81.588867
1002.000000, 81.578934
1003.000000, 81.743416
1004.000000, 81.855331
1005.000000, 81.963181
1006.000000, 82.087173
1007.000000, 82.086769
1008.000000, 82.205681
1009.000000, 82.246033
1010.000000, 82.233070
1011.000000, 82.262245
1012.000000, 82.212929
1013.000000, 82.308617
1014.000000, 82.289261
1015.000000, 82.301315
1016.000000, 82.316780
1017.000000, 82.237175
1018.000000, 82.245651
1019.000000, 82.239182
1020.000000, 82.174393
1021.000000, 82.195564
1022.000000, 82.150383
1023.000000, 82.099190
1024.000000, 81.934135
1025.000000, 82.047745
1026.000000, 81.944862
1027.000000, 81.817230
1028.000000, 81.722412
1029.000000, 81.723114
1030.000000, 81.644600
1031.000000, 81.646172
1032.000000, 81.551910
1033.000000, 81.453491
1034.000000, 81.519760
1035.000000, 81.464165
1036.000000, 81.309822
1037.000000, 81.389023
1038.000000, 81.310333
1039.000000, 81.276115
1040.000000, 81.163551
1041.000000, 81.142136
1042.000000, 81.125854
1043.000000, 81.145874
1044.000000, 81.140808
1045.000000, 81.130188
1046.000000, 81.139015
1047.000000, 81.104530
1048.000000, 81.132942
1049.000000, 81.233147
1050.000000, 81.222649
1051.000000, 81.242393
1052.000000, 81.239212
1053.000000, 81.382713
1054.000000, 81.338005
1055.000000, 81.424652
1056.000000, 81.488182
1057.000000, 81.509392
1058.000000, 81.623932
1059.000000, 81.719933
1060.000000, 81.726067
1061.000000, 81.913391
1062.000000, 81.885956
1063.000000, 82.014534
1064.000000, 82.073326
1065.000000, 82.094673
1066.000000, 82.289299
1067.000000, 82.258484
1068.000000, 82.303787
1069.000000, 82.403656
1070.000000, 82.399780
1071.000000, 82.525017
1072.000000, 82.607719
1073.000000, 82.619629
1074.000000, 82.722580
1075.000000, 82.718147
1076.000000, 82.837791
1077.000000, 82.789253
1078.000000, 82.838806
1079.000000, 82.882607
1080.000000, 82.831421
1081.000000, 82.974861
1082.000000, 82.945564
1083.000000, 82.905289
1084.000000, 82.878166
1085.000000, 82.925713
1086.000000, 82.877556
1087.000000, 82.884178
1088.000000, 82.881432
1089.000000, 82.736137
1090.000000, 82.760017
1091.000000, 82.864342
1092.000000, 82.745613
1093.000000, 82.669640
1094.000000, 82.610825
1095.000000, 82.579842
1096.000000, 82.479790
1097.000000, 82.490326
1098.000000, 82.420479
1099.000000, 82.393669
1100.000000, 82.369019
1101.000000, 82.233086
1102.000000, 82.111938
1103.000000, 82.197289
1104.000000, 82.080940
1105.000000, 81.943092
1106.000000, 82.086609
1107.000000, 81.938034
1108.000000, 81.869141
1109.000000, 81.754791
1110.000000, 81.644112
1111.000000, 81.535164
1112.000000, 81.579018
1113.000000, 81.480370
1114.000000, 81.492889
1115.000000, 81.520515
1116.000000, 81.434563
1117.000000, 81.237480
1118.000000, 81.223610
1119.000000, 81.228188
1120.000000, 81.217529
1121.000000, 81.072685
1122.000000, 80.980255
1123.000000, 80.991684
1124.000000, 80.996056
1125.000000, 80.818466
1126.000000, 80.907402
1127.000000, 80.808571
1128.000000, 80.720192
1129.000000, 80.719467
1130.000000, 80.628601
1131.000000, 80.580185
1132.000000, 80.493126
1133.000000, 80.495987
1134.000000, 80.400017
1135.000000, 80.375000
1136.000000, 80.380478
1137.000000, 80.417816
1138.000000, 80.431313
1139.000000, 80.450951
1140.000000, 80.456116
1141.000000, 80.555679
1142.000000, 80.552116
1143.000000, 80.630760
1144.000000, 80.706093
1145.000000, 80.768944
1146.000000, 80.747223
1147.000000, 80.798073
1148.000000, 80.808945
1149.000000, 80.951241
1150.000000, 80.966675
1151.000000, 81.016663
1152.000000, 81.145653
1153.000000, 81.128601
1154.000000, 81.194710
1155.000000, 81.229004
1156.000000, 81.231621
1157.000000, 81.241348
1158.000000, 81.363152
1159.000000, 81.233490
1160.000000, 81.374184
1161.000000, 81.244324
1162.000000, 81.232063
1163.000000, 81.284943
1164.000000, 81.392647
1165.000000, 81.234955
1166.000000, 81.184616
1167.000000, 81.215439
1168.000000, 81.147240
1169.000000, 81.106247
1170.000000, 81.061516
1171.000000, 81.011543
1172.000000, 80.857117
1173.000000, 80.823990
1174.000000, 80.766983
1175.000000, 80.669685
1176.000000, 80.494446
1177.000000, 80.406372
1178.000000, 80.310646
1179.000000, 80.220589
1180.000000, 80.207481
1181.000000, 80.180946
1182.000000, 79.886177
1183.000000, 79.810219
1184.000000, 79.685356
1185.000000, 79.494873
1186.000000, 79.456306
1187.000000, 79.251091
1188.000000, 79.023941
1189.000000, 78.999435
1190.000000, 78.829582
1191.000000, 78.826401
1192.000000, 78.743126
1193.000000, 78.702805
1194.000000, 78.633308
1195.000000, 78.598610
1196.000000, 78.580460
1197.000000, 78.490318
1198.000000, 78.589806
1199.000000, 78.628883
1200.000000, 78.616058
1201.000000, 78.594315
1202.000000, 78.491585
1203.000000, 78.572395
1204.000000, 78.521606
1205.000000, 78.436348
1206.000000, 78.415947
1207.000000, 78.439751
1208.000000, 78.480026
1209.000000, 78.556534
1210.000000, 78.389732
1211.000000, 78.455910
1212.000000, 78.430069
1213.000000, 78.387741
1214.000000, 78.464333
1215.000000, 78.364296
1216.000000, 78.419052
1217.000000, 78.460564
1218.000000, 78.368202
1219.000000, 78.529732
1220.000000, 78.525131
1221.000000, 78.552773
1222.000000, 78.630821
1223.000000, 78.626297
1224.000000, 78.701515
1225.000000, 78.723549
1226.000000, 78.817551
1227.000000, 78.856369
1228.000000, 78.937447
1229.000000, 78.959694
1230.000000, 78.971588
1231.000000, 79.089142
1232.000000, 79.076569
1233.000000, 79.115578
1234.000000, 79.223084
1235.000000, 79.315056
1236.000000, 79.428284
1237.000000, 79.463951
1238.000000, 79.495361
1239.000000, 79.580643
1240.000000, 79.662956
1241.000000, 79.767303
1242.000000, 79.877609
1243.000000, 79.827629
1244.000000, 79.983879
1245.000000, 80.077827
1246.000000, 80.071167
1247.000000, 80.095963
1248.000000, 80.257095
1249.000000, 80.405441
1250.000000, 80.449951
1251.000000, 80.527573
1252.000000, 80.490738
1253.000000, 80.659897
1254.000000, 80.739227
1255.000000, 80.870529
1256.000000, 80.886284
1257.000000, 81.078560
1258.000000, 80.962280
1259.000000, 81.077988
1260.000000, 81.138420
1261.000000, 81.193024
1262.000000, 81.248657
1263.000000, 81.394104
1264.000000, 81.436234
1265.000000, 81.557075
1266.000000, 81.507454
1267.000000, 81.674355
1268.000000, 81.615196
1269.000000, 81.670868
1270.000000, 81.804161
1271.000000, 81.864906
1272.000000, 81.938522
1273.000000, 81.863464
1274.000000, 81.911690
1275.000000, 81.901649
1276.000000, 81.950226
1277.000000, 82.058060
1278.000000, 82.092285
1279.000000, 82.148605
1280.000000, 82.205154
1281.000000, 82.155838
1282.000000, 82.155632
1283.000000, 82.196022
1284.000000, 82.194611
1285.000000, 82.219383
1286.000000, 82.174782
1287.000000, 82.218323
1288.000000, 82.239662
1289.000000, 82.159386
1290.000000, 82.148758
1291.000000, 82.128426
1292.000000, 82.182938
1293.000000, 82.161430
1294.000000, 82.101753
1295.000000, 82.038956
1296.000000, 82.097610
1297.000000, 82.020836
1298.000000, 82.113541
1299.000000, 82.141045
1300.000000, 82.023430
1301.000000, 82.034439
1302.000000, 82.024422
1303.000000, 81.954422
1304.000000, 81.928452
1305.000000, 81.978271
1306.000000, 81.841019
1307.000000, 81.827171
1308.000000, 81.841904
1309.000000, 81.716011
1310.000000, 81.803459
1311.000000, 81.696884
1312.000000, 81.692108
1313.000000, 81.514702
1314.000000, 81.642517
1315.000000, 81.573502
1316.000000, 81.650856
1317.000000, 81.529709
1318.000000, 81.544128
1319.000000, 81.515755
1320.000000, 81.437836
1321.000000, 81.363007
1322.000000, 81.371109
1323.000000, 81.345123
1324.000000, 81.282570
1325.000000, 81.325974
1326.000000, 81.275711
1327.000000, 81.184189
1328.000000, 81.233315
1329.000000, 81.113609
1330.000000, 81.281487
1331.000000, 81.155838
1332.000000, 81.178894
1333.000000, 81.072388
1334.000000, 81.171471
1335.000000, 81.052437
1336.000000, 81.126892
1337.000000, 80.997452
1338.000000, 80.987686
1339.000000, 81.031891
1340.000000, 80.997620
1341.000000, 80.971519
1342.000000, 80.890450
1343.000000, 80.910614
1344.000000, 80.921944
1345.000000, 80.988396
1346.000000, 80.937447
1347.000000, 80.902687
1348.000000, 80.845604
1349.000000, 80.795753
1350.000000, 80.807617
1351.000000, 80.754158
1352.000000, 80.740395
1353.000000, 80.640587
1354.000000, 80.593346
1355.000000, 80.561905
1356.000000, 80.485168
1357.000000, 80.481483
1358.000000, 80.445274
1359.000000, 80.483910
1360.000000, 80.484047
1361.000000, 80.427307
1362.000000, 80.397453
1363.000000, 80.375908
1364.000000, 80.356873
1365.000000, 80.342018
1366.000000, 80.378120
1367.000000, 80.384842
1368.000000, 80.200096
1369.000000, 80.324631
1370.000000, 80.257492
1371.000000, 80.238678
1372.000000, 80.258484
1373.000000, 80.151680
1374.000000, 80.124290
1375.000000, 80.102829
1376.000000, 80.038681
1377.000000, 80.182083
1378.000000, 80.097618
1379.000000, 80.069656
1380.000000, 80.102905
1381.000000, 80.102257
1382.000000, 80.103821
1383.000000, 80.083107
1384.000000, 80.244225
1385.000000, 80.169830
1386.000000, 80.189034
1387.000000, 80.195084
1388.000000, 80.165550
1389.000000, 80.166557
1390.000000, 80.133667
1391.000000, 80.245033
1392.000000, 80.154099
1393.000000, 80.242676
1394.000000, 80.221298
1395.000000, 80.211601
1396.000000, 80.244698
1397.000000, 80.319839
1398.000000, 80.340248
1399.000000, 80.407234
1400.000000, 80.463097
1401.000000, 80.463715
1402.000000, 80.491486
1403.000000, 80.484085
1404.000000, 80.460182
1405.000000, 80.496620
1406.000000, 80.440254
1407.000000, 80.399788
1408.000000, 80.399895
1409.000000, 80.293098
1410.000000, 80.293167
1411.000000, 80.137001
1412.000000, 79.978180
1413.000000, 79.941963
1414.000000, 79.819969
1415.000000, 79.723671
1416.000000, 79.558022
1417.000000, 79.383804
1418.000000, 79.114120
1419.000000, 78.929474
1420.000000, 78.754097
1421.000000, 78.477943
1422.000000, 78.322632
1423.000000, 78.030624
1424.000000, 77.796135
1425.000000, 77.796516
1426.000000, 77.641663
1427.000000, 77.596649
1428.000000, 77.466545
1429.000000, 77.560120
1430.000000, 77.457550
1431.000000, 77.459114
1432.000000, 77.553459
1433.000000, 77.520470
1434.000000, 77.682022
1435.000000, 77.672821
1436.000000, 77.806610
1437.000000, 77.869507
1438.000000, 77.928749
1439.000000, 78.091415
1440.000000, 78.072968
1441.000000, 78.083038
1442.000000, 78.176033
1443.000000, 78.276634
1444.000000, 78.495087
1445.000000, 78.488182
1446.000000, 78.541901
1447.000000, 78.640282
1448.000000, 78.570839
1449.000000, 78.703423
1450.000000, 78.728516
1451.000000, 78.794281
1452.000000, 78.819473
1453.000000, 78.890465
1454.000000, 78.957718
1455.000000, 78.958069
1456.000000, 79.055237
1457.000000, 78.925835
1458.000000, 79.059837
1459.000000, 79.054001
1460.000000, 79.133568
1461.000000, 79.132980
1462.000000, 79.193176
1463.000000, 79.253677
1464.000000, 79.371902
1465.000000, 79.239265
1466.000000, 79.312973
1467.000000, 79.412086
1468.000000, 79.360542
1469.000000, 79.448418
1470.000000, 79.380775
1471.000000, 79.553535
1472.000000, 79.626099
1473.000000, 79.503922
1474.000000, 79.547813
1475.000000, 79.592255
1476.000000, 79.685898
1477.000000, 79.717209
1478.000000, 79.763168
1479.000000, 79.766701
1480.000000, 79.812431
1481.000000, 79.831696
1482.000000, 79.948784
1483.000000, 80.060181
1484.000000, 80.053917
1485.000000, 80.134827
1486.000000, 80.155411
1487.000000, 80.263336
1488.000000, 80.294785
1489.000000, 80.361908
1490.000000, 80.249840
1491.000000, 80.426857
1492.000000, 80.272255
1493.000000, 80.501350
1494.000000, 80.570297
1495.000000, 80.637619
1496.000000, 80.759315
1497.000000, 80.663483
1498.000000, 80.725845
1499.000000, 80.817955
1500.000000, 80.951683
1501.000000, 80.898232
1502.000000, 80.962494
1503.000000, 80.968048
1504.000000, 81.057335
1505.000000, 81.098953
1506.000000, 81.203499
1507.000000, 81.245674
1508.000000, 81.103226
1509.000000, 81.276115
1510.000000, 81.262871
1511.000000, 81.324944
1512.000000, 81.275047
1513.000000, 81.273773
1514.000000, 81.276268
1515.000000, 81.413818
1516.000000, 81.319252
1517.000000, 81.201134
1518.000000, 81.181679
1519.000000, 81.219223
1520.000000, 81.108566
1521.000000, 81.097427
1522.000000, 81.055557
1523.000000, 81.089615
1524.000000, 80.922081
1525.000000, 80.867599
1526.000000, 80.861221
1527.000000, 80.853287
1528.000000, 80.705063
1529.000000, 80.634407
1530.000000, 80.599419
1531.000000, 80.536369
1532.000000, 80.374489
1533.000000, 80.303116
1534.000000, 80.280098
1535.000000, 80.195694
1536.000000, 80.210510
1537.000000, 80.245384
1538.000000, 80.268707
1539.000000, 80.317551
1540.000000, 80.233315
1541.000000, 80.337204
1542.000000, 80.445808
1543.000000, 80.338356
1544.000000, 80.468842
1545.000000, 80.582489
1546.000000, 80.661308
1547.000000, 80.839180
1548.000000, 80.980515
1549.000000, 81.002655
1550.000000, 81.308350
1551.000000, 81.341537
1552.000000, 81.514893
1553.000000, 81.762276
1554.000000, 81.834122
1555.000000, 81.878601
1556.000000, 82.113747
1557.000000, 82.191330
1558.000000, 82.371368
1559.000000, 82.344109
1560.000000, 82.457207
1561.000000, 82.442680
1562.000000, 82.593704
1563.000000, 82.600090
1564.000000, 82.610008
1565.000000, 82.714073
1566.000000, 82.738510
1567.000000, 82.746216
1568.000000, 82.711403
1569.000000, 82.758713
1570.000000, 82.789413
1571.000000, 82.848541
1572.000000, 82.775795
1573.000000, 82.751640
1574.000000, 82.821701
1575.000000, 82.729874
1576.000000, 82.714836
1577.000000, 82.769157
1578.000000, 82.778061
1579.000000, 82.702324
1580.000000, 82.623360
1581.000000, 82.709717
1582.000000, 82.628586
1583.000000, 82.574791
1584.000000, 82.703033
1585.000000, 82.613121
1586.000000, 82.573105
1587.000000, 82.684517
1588.000000, 82.650879
1589.000000, 82.606735
1590.000000, 82.640648
1591.000000, 82.608986
1592.000000, 82.617676
1593.000000, 82.507637
1594.000000, 82.574226
1595.000000, 82.566788
1596.000000, 82.665970
1597.000000, 82.451981
1598.000000, 82.482552
1599.000000, 82.561806
1600.000000, 82.507660
1601.000000, 82.511185
1602.000000, 82.554306
1603.000000, 82.438644
1604.000000, 82.392860
1605.000000, 82.449951
1606.000000, 82.433929
1607.000000, 82.475647
1608.000000, 82.459702
1609.000000, 82.451508
1610.000000, 82.415947
1611.000000, 82.334435
1612.000000, 82.325386
1613.000000, 82.314056
1614.000000, 82.199875
1615.000000, 82.221664
1616.000000, 82.216789
1617.000000, 82.168137
1618.000000, 82.159081
1619.000000, 82.113754
1620.000000, 82.140190
1621.000000, 82.066879
1622.000000, 82.096130
1623.000000, 82.173737
1624.000000, 82.123199
1625.000000, 82.157425
1626.000000, 82.042526
1627.000000, 82.109673
1628.000000, 82.093384
1629.000000, 81.930458
1630.000000, 81.950325
1631.000000, 81.842720
1632.000000, 81.803749
1633.000000, 81.773148
1634.000000, 81.700752
1635.000000, 81.651916
1636.000000, 81.682121
1637.000000, 81.716103
1638.000000, 81.565872
1639.000000, 81.576103
1640.000000, 81.622292
1641.000000, 81.492920
1642.000000, 81.374092
1643.000000, 81.176529
1644.000000, 81.051147
1645.000000, 80.796173
1646.000000, 80.770844
1647.000000, 80.583832
1648.000000, 80.430267
1649.000000, 80.257805
1650.000000, 80.255669
1651.000000, 80.239067
1652.000000, 80.235130
1653.000000, 80.092064
1654.000000, 79.886681
1655.000000, 79.712013
1656.000000, 79.465340
1657.000000, 79.163910
1658.000000, 78.810303
1659.000000, 78.446083
1660.000000, 77.944946
1661.000000, 77.483162
1662.000000, 76.940277
1663.000000, 76.173080
1664.000000, 75.489349
1665.000000, 74.788895
1666.000000, 74.136909
1667.000000, 73.545082
1668.000000, 73.067566
1669.000000, 72.740654
1670.000000, 72.619118
1671.000000, 72.701370
1672.000000, 73.047028
1673.000000, 73.118927
1674.000000, 73.514656
1675.000000, 73.861404
1676.000000, 74.246429
1677.000000, 74.561852
1678.000000, 74.740829
1679.000000, 74.893303
1680.000000, 75.037727
1681.000000, 74.908134
1682.000000, 74.709564
1683.000000, 74.336128
1684.000000, 73.919006
1685.000000, 73.570511
1686.000000, 73.097992
1687.000000, 72.736565
1688.000000, 72.552582
1689.000000, 72.357437
1690.000000, 72.334419
1691.000000, 72.275986
1692.000000, 72.353424
1693.000000, 72.373817
1694.000000, 72.363083
1695.000000, 72.161324
1696.000000, 72.001198
1697.000000, 71.687347
1698.000000, 71.525093
1699.000000, 71.350136
1700.000000, 71.234497
1701.000000, 71.337212
1702.000000, 71.351295
1703.000000, 71.546570
1704.000000, 71.770683
1705.000000, 71.963791
1706.000000, 72.112480
1707.000000, 72.234047
1708.000000, 72.405350
1709.000000, 72.526909
1710.000000, 72.594246
1711.000000, 72.705406
1712.000000, 72.696068
1713.000000, 72.665916
1714.000000, 72.652611
1715.000000, 72.521210
1716.000000, 72.358253
1717.000000, 72.205215
1718.000000, 72.072014
1719.000000, 71.880119
1720.000000, 71.933060
1721.000000, 71.741188
1722.000000, 71.835495
1723.000000, 71.710022
1724.000000, 71.675331
1725.000000, 71.653687
1726.000000, 71.758774
1727.000000, 71.802345
1728.000000, 71.804863
1729.000000, 71.806564
1730.000000, 71.790627
1731.000000, 71.801086
1732.000000, 71.708710
1733.000000, 71.700493
1734.000000, 71.665710
1735.000000, 71.686371
1736.000000, 71.794487
1737.000000, 71.733337
1738.000000, 71.860413
1739.000000, 72.053719
1740.000000, 72.125198
1741.000000, 72.289108
1742.000000, 72.586876
1743.000000, 72.751190
1744.000000, 72.965034
1745.000000, 73.161659
1746.000000, 73.367073
1747.000000, 73.634422
1748.000000, 73.770348
1749.000000, 73.918068
1750.000000, 74.008224
1751.000000, 74.220047
1752.000000, 74.336777
1753.000000, 74.437706
1754.000000, 74.541145
1755.000000, 74.568649
1756.000000, 74.617401
1757.000000, 74.691322
1758.000000, 74.588654
1759.000000, 74.627289
1760.000000, 74.568840
1761.000000, 74.572914
1762.000000, 74.627205
1763.000000, 74.488586
1764.000000, 74.510368
1765.000000, 74.521545
1766.000000, 74.450500
1767.000000, 74.455727
1768.000000, 74.374100
1769.000000, 74.480057
1770.000000, 74.500534
1771.000000, 74.583061
1772.000000, 74.618843
1773.000000, 74.723770
1774.000000, 74.808823
1775.000000, 75.001045
1776.000000, 75.083771
1777.000000, 75.192955
1778.000000, 75.326782
1779.000000, 75.478180
1780.000000, 75.620148
1781.000000, 75.666542
1782.000000, 75.671204
1783.000000, 75.796486
1784.000000, 75.836754
1785.000000, 75.883698
1786.000000, 75.969299
1787.000000, 75.971970
1788.000000, 75.952354
1789.000000, 75.942116
1790.000000, 76.063744
1791.000000, 76.047890
1792.000000, 76.015465
1793.000000, 76.136482
1794.000000, 76.076630
1795.000000, 76.121124
1796.000000, 76.057236
1797.000000, 76.141747
1798.000000, 76.131805
1799.000000, 76.056618
1800.000000, 76.186249
1801.000000, 76.074715
1802.000000, 76.091583
1803.000000, 76.162651
1804.000000, 76.078644
1805.000000, 76.121849
1806.000000, 76.143394
1807.000000, 76.081650
1808.000000, 76.131203
1809.000000, 76.052124
1810.000000, 76.172722
1811.000000, 76.092636
1812.000000, 76.083511
1813.000000, 76.177055
1814.000000, 76.065811
1815.000000, 76.133347
1816.000000, 76.160667
1817.000000, 76.136772
1818.000000, 76.182976
1819.000000, 76.243042
1820.000000, 76.202866
1821.000000, 76.271469
1822.000000, 76.187729
1823.000000, 76.322464
1824.000000, 76.241806
1825.000000, 76.291672
1826.000000, 76.226288
1827.000000, 76.205315
1828.000000, 76.416229
1829.000000, 76.286087
1830.000000, 76.408730
1831.000000, 76.376244
1832.000000, 76.488976
1833.000000, 76.412598
1834.000000, 76.539352
1835.000000, 76.636948
1836.000000, 76.589096
1837.000000, 76.723221
1838.000000, 76.605469
1839.000000, 76.733696
1840.000000, 76.781059
1841.000000, 76.783234
1842.000000, 76.915993
1843.000000, 76.838837
1844.000000, 76.933144
1845.000000, 77.021179
1846.000000, 76.987724
1847.000000, 76.989800
1848.000000, 77.081749
1849.000000, 77.172600
1850.000000, 77.191811
1851.000000, 77.208038
1852.000000, 77.298645
1853.000000, 77.326492
1854.000000, 77.400604
1855.000000, 77.422729
1856.000000, 77.516953
1857.000000, 77.651527
1858.000000, 77.563889
1859.000000, 77.623802
1860.000000, 77.588570
1861.000000, 77.689690
1862.000000, 77.576836
1863.000000, 77.680817
1864.000000, 77.702415
1865.000000, 77.785614
1866.000000, 77.837486
1867.000000, 77.764580
1868.000000, 77.813835
1869.000000, 77.800163
1870.000000, 77.878662
1871.000000, 77.812729
1872.000000, 77.930359
1873.000000, 77.883369
1874.000000, 77.918213
1875.000000, 77.971207
1876.000000, 78.007347
1877.000000, 77.907036
1878.000000, 77.935593
1879.000000, 78.003754
1880.000000, 78.030174
1881.000000, 77.962921
1882.000000, 78.128906
1883.000000, 78.106743
1884.000000, 77.980286
1885.000000, 78.053192
1886.000000, 78.005363
1887.000000, 78.015907
1888.000000, 77.955368
1889.000000, 77.986542
1890.000000, 77.933464
1891.000000, 77.953323
1892.000000, 77.774277
1893.000000, 77.812920
1894.000000, 77.799324
1895.000000, 77.833603
1896.000000, 77.736801
1897.000000, 77.723999
1898.000000, 77.595901
1899.000000, 77.563126
1900.000000, 77.552727
1901.000000, 77.464355
1902.000000, 77.437798
1903.000000, 77.493652
1904.000000, 77.362091
1905.000000, 77.403931
1906.000000, 77.344749
1907.000000, 77.336273
1908.000000, 77.345192
1909.000000, 77.304253
1910.000000, 77.289749
1911.000000, 77.367142
1912.000000, 77.220200
1913.000000, 77.257767
1914.000000, 77.254959
1915.000000, 77.211586
1916.000000, 77.183685
1917.000000, 77.246185
1918.000000, 77.184090
1919.000000, 77.230713
1920.000000, 77.166458
1921.000000, 77.170784
1922.000000, 77.222939
1923.000000, 77.218201
1924.000000, 77.196136
1925.000000, 77.129341
1926.000000, 77.109451
1927.000000, 77.221313
1928.000000, 77.160187
1929.000000, 77.195976
1930.000000, 77.129852
1931.000000, 77.182358
1932.000000, 77.179245
1933.000000, 77.172218
1934.000000, 77.117607
1935.000000, 77.144386
1936.000000, 77.252831
1937.000000, 77.214958
1938.000000, 77.222328
1939.000000, 77.234886
1940.000000, 77.277473
1941.000000, 77.220901
1942.000000, 77.320747
1943.000000, 77.293549
1944.000000, 77.335861
1945.000000, 77.368454
1946.000000, 77.364822
1947.000000, 77.381424
1948.000000, 77.389412
1949.000000, 77.344131
1950.000000, 77.428810
1951.000000, 77.404076
1952.000000, 77.453140
1953.000000, 77.499924
1954.000000, 77.403412
1955.000000, 77.482201
1956.000000, 77.499519
1957.000000, 77.457031
1958.000000, 77.569916
1959.000000, 77.419922
1960.000000, 77.328888
1961.000000, 77.468491
1962.000000, 77.562752
1963.000000, 77.488594
1964.000000, 77.468636
1965.000000, 77.461662
1966.000000, 77.457634
1967.000000, 77.401764
1968.000000, 77.477425
1969.000000, 77.415840
1970.000000, 77.423210
1971.000000, 77.512482
1972.000000, 77.485397
1973.000000, 77.364471
1974.000000, 77.483559
1975.000000, 77.418091
1976.000000, 77.357773
1977.000000, 77.462639
1978.000000, 77.316315
1979.000000, 77.362183
1980.000000, 77.295769
1981.000000, 77.336761
1982.000000, 77.297691
1983.000000, 77.292923
1984.000000, 77.262909
1985.000000, 77.274475
1986.000000, 77.152412
1987.000000, 77.191818
1988.000000, 77.068466
1989.000000, 77.064499
1990.000000, 76.990608
1991.000000, 76.932190
1992.000000, 76.860367
1993.000000, 76.786598
1994.000000, 76.773987
1995.000000, 76.615303
1996.000000, 76.512405
1997.000000, 76.458817
1998.000000, 76.400734
1999.000000, 76.234909
2000.000000, 76.233994
2001.000000, 76.177254
2002.000000, 76.055130
2003.000000, 75.914993
2004.000000, 75.858780
2005.000000, 75.776581
2006.000000, 75.589684
2007.000000, 75.476685
2008.000000, 75.308434
2009.000000, 75.217422
2010.000000, 75.123459
2011.000000, 75.072838
2012.000000, 74.835846
2013.000000, 74.674759
2014.000000, 74.526192
2015.000000, 74.360123
2016.000000, 74.335770
2017.000000, 74.061874
2018.000000, 73.989525
2019.000000, 73.841522
2020.000000, 73.585381
2021.000000, 73.410294
2022.000000, 73.303017
2023.000000, 73.106300
2024.000000, 72.924965
2025.000000, 72.887001
2026.000000, 72.663246
2027.000000, 72.517044
2028.000000, 72.411903
2029.000000, 72.223129
2030.000000, 72.134415
2031.000000, 71.986679
2032.000000, 71.807007
2033.000000, 71.634048
2034.000000, 71.470657
2035.000000, 71.316025
2036.000000, 71.139847
2037.000000, 70.994965
2038.000000, 70.795097
2039.000000, 70.597206
2040.000000, 70.419464
2041.000000, 70.366585
2042.000000, 70.150566
2043.000000, 69.880066
2044.000000, 69.680237
2045.000000, 69.474518
2046.000000, 69.390121
2047.000000, 69.214104
2048.000000, 69.026550
2049.000000, 68.899780
2050.000000, 68.642410
2051.000000, 68.513412
2052.000000, 68.377121
2053.000000, 68.151176
2054.000000, 67.916939
2055.000000, 67.772659
2056.000000, 67.619156
2057.000000, 67.427048
2058.000000, 67.278709
2059.000000, 67.065842
2060.000000, 66.823021
2061.000000, 66.650002
2062.000000, 66.431213
2063.000000, 66.226082
2064.000000, 66.121277
2065.000000, 65.910660
2066.000000, 65.604904
2067.000000, 65.511795
2068.000000, 65.209976
2069.000000, 65.024429
2070.000000, 64.854874
2071.000000, 64.606071
2072.000000, 64.512482
2073.000000, 64.300247
2074.000000, 64.083908
2075.000000, 63.877319
2076.000000, 63.638771
2077.000000, 63.508797
2078.000000, 63.373970
2079.000000, 63.124020
2080.000000, 62.936474
2081.000000, 62.817879
2082.000000, 62.668705
2083.000000, 62.550205
2084.000000, 62.391026
2085.000000, 62.237404
2086.000000, 62.206261
2087.000000, 62.133987
2088.000000, 61.982315
2089.000000, 61.889011
2090.000000, 61.831646
2091.000000, 61.761421
2092.000000, 61.722725
2093.000000, 61.652981
2094.000000, 61.616962
2095.000000, 61.596172
2096.000000, 61.503525
2097.000000, 61.445946
2098.000000, 61.545067
2099.000000, 61.440880
2100.000000, 61.457016
2101.000000, 61.431866
2102.000000, 61.388363
2103.000000, 61.375664
2104.000000, 61.408989
2105.000000, 61.406273
2106.000000, 61.314930
2107.000000, 61.287392
2108.000000, 61.323090
2109.000000, 61.341328
2110.000000, 61.273449
2111.000000, 61.240040
2112.000000, 61.280884
2113.000000, 61.272602
2114.000000, 61.221798
2115.000000, 61.229164
2116.000000, 61.119019
2117.000000, 61.120533
2118.000000, 61.066132
2119.000000, 60.951061
2120.000000, 60.952793
2121.000000, 60.890812
2122.000000, 60.777622
2123.000000, 60.605095
2124.000000, 60.468719
2125.000000, 60.335934
2126.000000, 60.000824
2127.000000, 59.590919
2128.000000, 59.221447
2129.000000, 58.809788
2130.000000, 58.226646
2131.000000, 57.758213
2132.000000, 57.241863
2133.000000, 56.725651
2134.000000, 56.419136
2135.000000, 56.162895
2136.000000, 56.161835
2137.000000, 56.164719
2138.000000, 56.425812
2139.000000, 56.643349
2140.000000, 57.017242
2141.000000, 57.477806
2142.000000, 57.802094
2143.000000, 58.339058
2144.000000, 58.624165
2145.000000, 58.920734
2146.000000, 59.226578
2147.000000, 59.390545
2148.000000, 59.534622
2149.000000, 59.420151
2150.000000, 59.364052
2151.000000, 59.135597
2152.000000, 58.826828
2153.000000, 58.459122
2154.000000, 58.097561
2155.000000, 57.537556
2156.000000, 56.890923
2157.000000, 56.327057
2158.000000, 55.794071
2159.000000, 55.229370
2160.000000, 54.805363
2161.000000, 54.452496
2162.000000, 54.285751
2163.000000, 54.282833
2164.000000, 54.397614
2165.000000, 54.850952
2166.000000, 55.412666
2167.000000, 56.129116
2168.000000, 56.906544
2169.000000, 57.688965
2170.000000, 58.527843
2171.000000, 59.325748
2172.000000, 60.074837
2173.000000, 60.768253
2174.000000, 61.311428
2175.000000, 61.650234
2176.000000, 62.009609
2177.000000, 62.301453
2178.000000, 62.397610
2179.000000, 62.522690
2180.000000, 62.575974
2181.000000, 62.549358
2182.000000, 62.539272
2183.000000, 62.505753
2184.000000, 62.397270
2185.000000, 62.258541
2186.000000, 62.208920
2187.000000, 62.158173
2188.000000, 62.057980
2189.000000, 62.188637
2190.000000, 62.150280
2191.000000, 62.282776
2192.000000, 62.422031
2193.000000, 62.581753
2194.000000, 62.767696
2195.000000, 62.954338
2196.000000, 63.122208
2197.000000, 63.303608
2198.000000, 63.359856
2199.000000, 63.437546
2200.000000, 63.555710
2201.000000, 63.646412
2202.000000, 63.728683
2203.000000, 63.744789
2204.000000, 63.820065
2205.000000, 63.845318
2206.000000, 63.844109
2207.000000, 63.848789
2208.000000, 63.892174
2209.000000, 63.890587
2210.000000, 63.971268
2211.000000, 63.995224
2212.000000, 64.016884
2213.000000, 64.075127
2214.000000, 64.073769
2215.000000, 64.104439
2216.000000, 64.157471
2217.000000, 64.163918
2218.000000, 64.206718
2219.000000, 64.164589
2220.000000, 64.123192
2221.000000, 64.009392
2222.000000, 63.882984
2223.000000, 63.912384
2224.000000, 63.667786
2225.000000, 63.437599
2226.000000, 63.308315
2227.000000, 63.082790
2228.000000, 62.820087
2229.000000, 62.593269
2230.000000, 62.372089
2231.000000, 62.245644
2232.000000, 61.979263
2233.000000, 61.720085
2234.000000, 61.646034
2235.000000, 61.444508
2236.000000, 61.341198
2237.000000, 61.075378
2238.000000, 60.909225
2239.000000, 60.534241
2240.000000, 60.266804
2241.000000, 59.993809
2242.000000, 59.669781
2243.000000, 59.251587
2244.000000, 58.768665
2245.000000, 58.272598
2246.000000, 57.799435
2247.000000, 57.133156
2248.000000, 56.527061
2249.000000, 55.824055
2250.000000, 55.113403
2251.000000, 54.289406
2252.000000, 53.566856
2253.000000, 52.685959
2254.000000, 51.850914
2255.000000, 51.029026
2256.000000, 50.102951
2257.000000, 49.193916
2258.000000, 48.299412
2259.000000, 47.351723
2260.000000, 46.506084
2261.000000, 45.575954
2262.000000, 44.585304
2263.000000, 43.605232
2264.000000, 42.660767
2265.000000, 41.794033
2266.000000, 40.872570
2267.000000, 40.006771
2268.000000, 39.098270
2269.000000, 38.290020
2270.000000, 37.536255
2271.000000, 36.884033
2272.000000, 36.210220
2273.000000, 35.654102
2274.000000, 35.130123
2275.000000, 34.732979
2276.000000, 34.412376
2277.000000, 34.075291
2278.000000, 33.810837
2279.000000, 33.556183
2280.000000, 33.274574
2281.000000, 32.961704
2282.000000, 32.707764
2283.000000, 32.417793
2284.000000, 32.107464
2285.000000, 31.720385
2286.000000, 31.405556
2287.000000, 31.077396
2288.000000, 30.740086
2289.000000, 30.398024
2290.000000, 30.085546
2291.000000, 29.679844
2292.000000, 29.352573
2293.000000, 29.004494
2294.000000, 28.695074
2295.000000, 28.391870
2296.000000, 28.045780
2297.000000, 27.779690
2298.000000, 27.566729
2299.000000, 27.286983
2300.000000, 27.064831
2301.000000, 26.890968
2302.000000, 26.696815
2303.000000, 26.544991
2304.000000, 26.363600
2305.000000, 26.202015
2306.000000, 26.047287
2307.000000, 25.933725
2308.000000, 25.762096
2309.000000, 25.614489
2310.000000, 25.495785
2311.000000, 25.386927
2312.000000, 25.317759
2313.000000, 25.261381
2314.000000, 25.291002
2315.000000, 25.408840
2316.000000, 25.594398
2317.000000, 25.904230
2318.000000, 26.270384
2319.000000, 26.730293
2320.000000, 27.277973
2321.000000, 27.814234
2322.000000, 28.372934
2323.000000, 28.903061
2324.000000, 29.465818
2325.000000, 29.944416
2326.000000, 30.402967
2327.000000, 30.886808
2328.000000, 31.301886
2329.000000, 31.644783
2330.000000, 32.007065
2331.000000, 32.308868
2332.000000, 32.588135
2333.000000, 32.908775
2334.000000, 33.203407
2335.000000, 33.435909
2336.000000, 33.636036
2337.000000, 33.834354
2338.000000, 33.916607
2339.000000, 34.070145
2340.000000, 34.119015
2341.000000, 34.134998
2342.000000, 34.145592
2343.000000, 34.102333
2344.000000, 34.068951
2345.000000, 33.995991
2346.000000, 33.977554
2347.000000, 33.937008
2348.000000, 33.853867
2349.000000, 33.859341
2350.000000, 33.834503
2351.000000, 33.827957
2352.000000, 33.882675
2353.000000, 33.938019
2354.000000, 33.985165
2355.000000, 34.115879
2356.000000, 34.169998
2357.000000, 34.195831
2358.000000, 34.225327
2359.000000, 34.175961
2360.000000, 34.201740
2361.000000, 34.137840
2362.000000, 34.089870
2363.000000, 34.065548
2364.000000, 34.043312
2365.000000, 34.055817
2366.000000, 34.062393
2367.000000, 34.149216
2368.000000, 34.173187
2369.000000, 34.310638
2370.000000, 34.391701
2371.000000, 34.460884
2372.000000, 34.530262
2373.000000, 34.601433
2374.000000, 34.660606
2375.000000, 34.782391
2376.000000, 34.822014
2377.000000, 34.876461
2378.000000, 34.916496
2379.000000, 34.885662
2380.000000, 34.837330
2381.000000, 34.812454
2382.000000, 34.707745
2383.000000, 34.600441
2384.000000, 34.516941
2385.000000, 34.370022
2386.000000, 34.265156
2387.000000, 34.110554
2388.000000, 34.010422
2389.000000, 33.878517
2390.000000, 33.790543
2391.000000, 33.673546
2392.000000, 33.515434
2393.000000, 33.438046
2394.000000, 33.289616
2395.000000, 33.183777
2396.000000, 33.045609
2397.000000, 32.966763
2398.000000, 32.845039
2399.000000, 32.768765
2400.000000, 32.715961
2401.000000, 32.688644
2402.000000, 32.736618
2403.000000, 32.794960
2404.000000, 32.958527
2405.000000, 33.109455
2406.000000, 33.343739
2407.000000, 33.571198
2408.000000, 33.850605
2409.000000, 34.120075
2410.000000, 34.405293
2411.000000, 34.701637
2412.000000, 34.945988
2413.000000, 35.182442
2414.000000, 35.380562
2415.000000, 35.574982
2416.000000, 35.761703
2417.000000, 35.846310
2418.000000, 35.970001
2419.000000, 36.065575
2420.000000, 36.119495
2421.000000, 36.205715
2422.000000, 36.217670
2423.000000, 36.252808
2424.000000, 36.238281
2425.000000, 36.207718
2426.000000, 36.150063
2427.000000, 36.106827
2428.000000, 35.968029
2429.000000, 35.887344
2430.000000, 35.751907
2431.000000, 35.647438
2432.000000, 35.430977
2433.000000, 35.300983
2434.000000, 35.058777
2435.000000, 34.790276
2436.000000, 34.537399
2437.000000, 34.228954
2438.000000, 33.898075
2439.000000, 33.510372
2440.000000, 33.066776
2441.000000, 32.621048
2442.000000, 32.081337
2443.000000, 31.559900
2444.000000, 30.937466
2445.000000, 30.409929
2446.000000, 29.819389
2447.000000, 29.237600
2448.000000, 28.631296
2449.000000, 28.053003
2450.000000, 27.490631
2451.000000, 26.921066
2452.000000, 26.392973
2453.000000, 25.887859
2454.000000, 25.414757
2455.000000, 24.916759
2456.000000, 24.469330
2457.000000, 24.085037
2458.000000, 23.782658
2459.000000, 23.553423
2460.000000, 23.365334
2461.000000, 23.230877
2462.000000, 23.201124
2463.000000, 23.278994
2464.000000, 23.404026
2465.000000, 23.602612
2466.000000, 23.915049
2467.000000, 24.188145
2468.000000, 24.613123
2469.000000, 25.064272
2470.000000, 25.502417
2471.000000, 25.966337
2472.000000, 26.388630
2473.000000, 26.847168
2474.000000, 27.261797
2475.000000, 27.669407
2476.000000, 28.072474
2477.000000, 28.367992
2478.000000, 28.720873
2479.000000, 28.906969
2480.000000, 29.108473
2481.000000, 29.282452
2482.000000, 29.398962
2483.000000, 29.460434
2484.000000, 29.462105
2485.000000, 29.477865
2486.000000, 29.475111
2487.000000, 29.426384
2488.000000, 29.383278
2489.000000, 29.365011
2490.000000, 29.290152
2491.000000, 29.216198
2492.000000, 29.167643
2493.000000, 29.089502
2494.000000, 28.998810
2495.000000, 28.945372
2496.000000, 28.831928
2497.000000, 28.776613
2498.000000, 28.716993
2499.000000, 28.625965
2500.000000, 28.501961
2501.000000, 28.366354
2502.000000, 28.319046
2503.000000, 28.191561
2504.000000, 28.094757
2505.000000, 28.050241
2506.000000, 27.945608
2507.000000, 27.858425
2508.000000, 27.851809
2509.000000, 27.825802
2510.000000, 27.845636
2511.000000, 27.846903
2512.000000, 27.916925
2513.000000, 27.942801
2514.000000, 27.995182
2515.000000, 28.127808
2516.000000, 28.290199
2517.000000, 28.450912
2518.000000, 28.643364
2519.000000, 28.851059
2520.000000, 29.063490
2521.000000, 29.293999
2522.000000, 29.564264
2523.000000, 29.789894
2524.000000, 30.033020
2525.000000, 30.277168
2526.000000, 30.574757
2527.000000, 30.840736
2528.000000, 31.075657
2529.000000, 31.369740
2530.000000, 31.638197
2531.000000, 31.833151
2532.000000, 32.121269
2533.000000, 32.298359
2534.000000, 32.552116
2535.000000, 32.742455
2536.000000, 32.950405
2537.000000, 33.066799
2538.000000, 33.259781
2539.000000, 33.384705
2540.000000, 33.543922
2541.000000, 33.630932
2542.000000, 33.731171
2543.000000, 33.822079
2544.000000, 33.912384
2545.000000, 33.955311
2546.000000, 34.050362
2547.000000, 34.065380
2548.000000, 34.109314
2549.000000, 34.185932
2550.000000, 34.199097
2551.000000, 34.197174
2552.000000, 34.274551
2553.000000, 34.338306
2554.000000, 34.375717
2555.000000, 34.425030
2556.000000, 34.480087
2557.000000, 34.538151
2558.000000, 34.589298
2559.000000, 34.683048
2560.000000, 34.686970
2561.000000, 34.767014
2562.000000, 34.877933
2563.000000, 34.921585
2564.000000, 34.980648
2565.000000, 35.053913
2566.000000, 35.160275
2567.000000, 35.241283
2568.000000, 35.356750
2569.000000, 35.374802
2570.000000, 35.448029
2571.000000, 35.529053
2572.000000, 35.609024
2573.000000, 35.678982
2574.000000, 35.669754
2575.000000, 35.759499
2576.000000, 35.909840
2577.000000, 35.960213
2578.000000, 36.079155
2579.000000, 36.214512
2580.000000, 36.393105
2581.000000, 36.552719
2582.000000, 36.746796
2583.000000, 36.951424
2584.000000, 37.198463
2585.000000, 37.440163
2586.000000, 37.688446
2587.000000, 37.995335
2588.000000, 38.260090
2589.000000, 38.544891
2590.000000, 38.846390
2591.000000, 39.155502
2592.000000, 39.407841
2593.000000, 39.684814
2594.000000, 39.932293
2595.000000, 40.182381
2596.000000, 40.379299
2597.000000, 40.631767
2598.000000, 40.864178
2599.000000, 41.030472
2600.000000, 41.199104
