# Wavelength  (nm), Transmission (%)
200.000000, 0.003174
201.000000, 0.003137
202.000000, 0.003021
203.000000, 0.002974
204.000000, 0.002923
205.000000, 0.002855
206.000000, 0.002781
207.000000, 0.002654
208.000000, 0.002550
209.000000, 0.002444
210.000000, 0.002399
211.000000, 0.002309
212.000000, 0.002255
213.000000, 0.002184
214.000000, 0.002088
215.000000, 0.002045
216.000000, 0.001970
217.000000, 0.001881
218.000000, 0.001805
219.000000, 0.001718
220.000000, 0.001666
221.000000, 0.001640
222.000000, 0.001571
223.000000, 0.001499
224.000000, 0.001437
225.000000, 0.001353
226.000000, 0.001340
227.000000, 0.001288
228.000000, 0.001225
229.000000, 0.001203
230.000000, 0.001166
231.000000, 0.001126
232.000000, 0.001096
233.000000, 0.001073
234.000000, 0.001020
235.000000, 0.000988
236.000000, 0.000960
237.000000, 0.000937
238.000000, 0.000925
239.000000, 0.000869
240.000000, 0.000862
241.000000, 0.000824
242.000000, 0.000797
243.000000, 0.000807
244.000000, 0.000760
245.000000, 0.000732
246.000000, 0.000716
247.000000, 0.000695
248.000000, 0.000667
249.000000, 0.000640
250.000000, 0.000651
251.000000, 0.000621
252.000000, 0.000600
253.000000, 0.000583
254.000000, 0.000559
255.000000, 0.000545
256.000000, 0.000529
257.000000, 0.000513
258.000000, 0.000504
259.000000, 0.000493
260.000000, 0.000463
261.000000, 0.000459
262.000000, 0.000444
263.000000, 0.000436
264.000000, 0.000416
265.000000, 0.000389
266.000000, 0.000407
267.000000, 0.000391
268.000000, 0.000374
269.000000, 0.000367
270.000000, 0.000358
271.000000, 0.000328
272.000000, 0.000341
273.000000, 0.000319
274.000000, 0.000330
275.000000, 0.000305
276.000000, 0.000315
277.000000, 0.000306
278.000000, 0.000297
279.000000, 0.000293
280.000000, 0.000284
281.000000, 0.000265
282.000000, 0.000289
283.000000, 0.000268
284.000000, 0.000249
285.000000, 0.000263
286.000000, 0.000255
287.000000, 0.000254
288.000000, 0.000242
289.000000, 0.000264
290.000000, 0.000257
291.000000, 0.000248
292.000000, 0.000245
293.000000, 0.000241
294.000000, 0.000257
295.000000, 0.000236
296.000000, 0.000261
297.000000, 0.000246
298.000000, 0.000245
299.000000, 0.000240
300.000000, 0.000256
301.000000, 0.000264
302.000000, 0.000249
303.000000, 0.000276
304.000000, 0.000286
305.000000, 0.000278
306.000000, 0.000275
307.000000, 0.000307
308.000000, 0.000308
309.000000, 0.000320
310.000000, 0.000305
311.000000, 0.000323
312.000000, 0.000334
313.000000, 0.000353
314.000000, 0.000356
315.000000, 0.000349
316.000000, 0.000365
317.000000, 0.000399
318.000000, 0.000387
319.000000, 0.000412
320.000000, 0.000417
321.000000, 0.000401
322.000000, 0.000412
323.000000, 0.000426
324.000000, 0.000398
325.000000, 0.000442
326.000000, 0.000395
327.000000, 0.000421
328.000000, 0.000411
329.000000, 0.000442
330.000000, 0.000430
331.000000, 0.000401
332.000000, 0.000417
333.000000, 0.000398
334.000000, 0.000368
335.000000, 0.000395
336.000000, 0.000366
337.000000, 0.000368
338.000000, 0.000366
339.000000, 0.000348
340.000000, 0.000350
341.000000, 0.000349
342.000000, 0.000369
343.000000, 0.000324
344.000000, 0.000305
345.000000, 0.000317
346.000000, 0.000330
347.000000, 0.000289
348.000000, 0.000298
349.000000, 0.000151
350.000000, 0.000340
351.000000, 0.000334
352.000000, 0.000328
353.000000, 0.000301
354.000000, 0.000313
355.000000, 0.000288
356.000000, 0.000290
357.000000, 0.000290
358.000000, 0.000266
359.000000, 0.000288
360.000000, 0.000270
361.000000, 0.000270
362.000000, 0.000258
363.000000, 0.000246
364.000000, 0.000248
365.000000, 0.000242
366.000000, 0.000246
367.000000, 0.000225
368.000000, 0.000252
369.000000, 0.000230
370.000000, 0.000232
371.000000, 0.000206
372.000000, 0.000233
373.000000, 0.000227
374.000000, 0.000226
375.000000, 0.000221
376.000000, 0.000216
377.000000, 0.000203
378.000000, 0.000217
379.000000, 0.000210
380.000000, 0.000198
381.000000, 0.000196
382.000000, 0.000207
383.000000, 0.000190
384.000000, 0.000208
385.000000, 0.000203
386.000000, 0.000216
387.000000, 0.000264
388.000000, 0.000349
389.000000, 0.000603
390.000000, 0.001229
391.000000, 0.003053
392.000000, 0.008474
393.000000, 0.026996
394.000000, 0.093922
395.000000, 0.367011
396.000000, 1.533575
397.000000, 5.731854
398.000000, 15.489815
399.000000, 29.381281
400.000000, 43.361870
401.000000, 53.598618
402.000000, 60.402985
403.000000, 65.074074
404.000000, 68.218208
405.000000, 70.250763
406.000000, 71.593658
407.000000, 72.593185
408.000000, 73.495308
409.000000, 74.633911
410.000000, 76.065536
411.000000, 77.768692
412.000000, 79.266754
413.000000, 80.387779
414.000000, 80.980507
415.000000, 80.971489
416.000000, 80.701050
417.000000, 80.409256
418.000000, 80.308403
419.000000, 80.586662
420.000000, 81.211861
421.000000, 82.122772
422.000000, 83.055237
423.000000, 83.972801
424.000000, 84.642807
425.000000, 84.967789
426.000000, 84.994514
427.000000, 84.690659
428.000000, 84.272072
429.000000, 83.797043
430.000000, 83.358437
431.000000, 83.049248
432.000000, 82.894669
433.000000, 82.934715
434.000000, 83.107269
435.000000, 83.442696
436.000000, 83.883484
437.000000, 84.403732
438.000000, 84.916618
439.000000, 85.434074
440.000000, 85.936790
441.000000, 86.387787
442.000000, 86.811836
443.000000, 87.192528
444.000000, 87.483253
445.000000, 87.703033
446.000000, 87.934532
447.000000, 88.138657
448.000000, 88.335159
449.000000, 88.421875
450.000000, 88.567284
451.000000, 88.696114
452.000000, 88.760498
453.000000, 88.860115
454.000000, 88.948998
455.000000, 89.017448
456.000000, 89.089752
457.000000, 89.147446
458.000000, 89.130493
459.000000, 89.166115
460.000000, 89.191505
461.000000, 89.187126
462.000000, 89.197121
463.000000, 89.236809
464.000000, 89.242867
465.000000, 89.276680
466.000000, 89.358681
467.000000, 89.387299
468.000000, 89.438400
469.000000, 89.451416
470.000000, 89.391479
471.000000, 89.346107
472.000000, 89.157959
473.000000, 88.911583
474.000000, 88.534637
475.000000, 88.097282
476.000000, 87.575615
477.000000, 86.985710
478.000000, 86.378166
479.000000, 85.725243
480.000000, 85.151421
481.000000, 84.592262
482.000000, 84.133003
483.000000, 83.824471
484.000000, 83.647415
485.000000, 83.633461
486.000000, 83.787849
487.000000, 84.056015
488.000000, 84.523735
489.000000, 85.093353
490.000000, 85.824028
491.000000, 86.561050
492.000000, 87.356224
493.000000, 88.139000
494.000000, 88.806702
495.000000, 89.376450
496.000000, 89.798492
497.000000, 90.049538
498.000000, 90.086899
499.000000, 89.866554
500.000000, 89.509506
501.000000, 88.946655
502.000000, 88.201904
503.000000, 87.370750
504.000000, 86.511208
505.000000, 85.634544
506.000000, 84.807510
507.000000, 84.048935
508.000000, 83.443329
509.000000, 82.947517
510.000000, 82.595909
511.000000, 82.440117
512.000000, 82.455421
513.000000, 82.640961
514.000000, 82.962273
515.000000, 83.451500
516.000000, 84.136551
517.000000, 84.838654
518.000000, 85.653778
519.000000, 86.489983
520.000000, 87.317024
521.000000, 88.087669
522.000000, 88.801476
523.000000, 89.396423
524.000000, 89.881577
525.000000, 90.176216
526.000000, 90.299477
527.000000, 90.302261
528.000000, 90.070786
529.000000, 89.759781
530.000000, 89.359024
531.000000, 88.815300
532.000000, 88.201622
533.000000, 87.611748
534.000000, 87.011635
535.000000, 86.450844
536.000000, 85.980934
537.000000, 85.539719
538.000000, 85.190994
539.000000, 85.010368
540.000000, 84.870369
541.000000, 84.864410
542.000000, 84.980232
543.000000, 85.163673
544.000000, 85.504082
545.000000, 85.872688
546.000000, 86.321892
547.000000, 86.784653
548.000000, 87.348816
549.000000, 87.886650
550.000000, 88.390175
551.000000, 88.882706
552.000000, 89.346710
553.000000, 89.712158
554.000000, 90.002754
555.000000, 90.304192
556.000000, 90.390572
557.000000, 90.468941
558.000000, 90.429855
559.000000, 90.261551
560.000000, 90.104607
561.000000, 89.849472
562.000000, 89.523392
563.000000, 89.232597
564.000000, 88.893135
565.000000, 88.551155
566.000000, 88.209602
567.000000, 87.881775
568.000000, 87.649193
569.000000, 87.397346
570.000000, 87.197319
571.000000, 87.085732
572.000000, 86.961876
573.000000, 86.962601
574.000000, 86.999763
575.000000, 87.062988
576.000000, 87.199005
577.000000, 87.386314
578.000000, 87.587891
579.000000, 87.838516
580.000000, 88.105904
581.000000, 88.318855
582.000000, 88.566650
583.000000, 88.820335
584.000000, 89.057014
585.000000, 89.244286
586.000000, 89.426353
587.000000, 89.575157
588.000000, 89.672562
589.000000, 89.727104
590.000000, 89.720200
591.000000, 89.721695
592.000000, 89.648163
593.000000, 89.540276
594.000000, 89.408943
595.000000, 89.284409
596.000000, 89.039284
597.000000, 88.852463
598.000000, 88.698189
599.000000, 88.474770
600.000000, 88.271904
601.000000, 88.060966
602.000000, 87.866608
603.000000, 87.711792
604.000000, 87.543312
605.000000, 87.416763
606.000000, 87.327515
607.000000, 87.234459
608.000000, 87.180504
609.000000, 87.170662
610.000000, 87.177567
611.000000, 87.187210
612.000000, 87.270287
613.000000, 87.310394
614.000000, 87.426888
615.000000, 87.556854
616.000000, 87.639282
617.000000, 87.775681
618.000000, 87.927170
619.000000, 88.033363
620.000000, 88.192856
621.000000, 88.314461
622.000000, 88.448021
623.000000, 88.569542
624.000000, 88.690338
625.000000, 88.798790
626.000000, 88.888596
627.000000, 88.974419
628.000000, 89.050499
629.000000, 89.082756
630.000000, 89.131508
631.000000, 89.164635
632.000000, 89.197548
633.000000, 89.208710
634.000000, 89.233246
635.000000, 89.213928
636.000000, 89.178917
637.000000, 89.171669
638.000000, 89.179512
639.000000, 89.176628
640.000000, 89.196465
641.000000, 89.164886
642.000000, 89.162132
643.000000, 89.158951
644.000000, 89.190926
645.000000, 89.176277
646.000000, 89.187431
647.000000, 89.218254
648.000000, 89.225304
649.000000, 89.259666
650.000000, 89.286156
651.000000, 89.351494
652.000000, 89.363968
653.000000, 89.381157
654.000000, 89.438759
655.000000, 89.458115
656.000000, 89.507858
657.000000, 89.560661
658.000000, 89.558640
659.000000, 89.584419
660.000000, 89.571068
661.000000, 89.618324
662.000000, 89.619598
663.000000, 89.584900
664.000000, 89.580437
665.000000, 89.541199
666.000000, 89.529129
667.000000, 89.488258
668.000000, 89.424477
669.000000, 89.369545
670.000000, 89.332603
671.000000, 89.292587
672.000000, 89.208015
673.000000, 89.138016
674.000000, 89.094971
675.000000, 89.019516
676.000000, 88.973602
677.000000, 88.880745
678.000000, 88.816406
679.000000, 88.775841
680.000000, 88.694534
681.000000, 88.650391
682.000000, 88.580696
683.000000, 88.580460
684.000000, 88.524948
685.000000, 88.480362
686.000000, 88.468460
687.000000, 88.492546
688.000000, 88.440796
689.000000, 88.419510
690.000000, 88.401253
691.000000, 88.449966
692.000000, 88.476097
693.000000, 88.512794
694.000000, 88.532562
695.000000, 88.548073
696.000000, 88.597137
697.000000, 88.573502
698.000000, 88.659073
699.000000, 88.676826
700.000000, 88.711212
701.000000, 88.763100
702.000000, 88.800659
703.000000, 88.820221
704.000000, 88.847237
705.000000, 88.881874
706.000000, 88.879204
707.000000, 88.863113
708.000000, 88.859474
709.000000, 88.900681
710.000000, 88.868393
711.000000, 88.841911
712.000000, 88.844444
713.000000, 88.798653
714.000000, 88.741676
715.000000, 88.747284
716.000000, 88.648354
717.000000, 88.599098
718.000000, 88.562981
719.000000, 88.522888
720.000000, 88.432655
721.000000, 88.406212
722.000000, 88.265083
723.000000, 88.198753
724.000000, 88.154800
725.000000, 88.005402
726.000000, 88.000198
727.000000, 87.879295
728.000000, 87.805824
729.000000, 87.725479
730.000000, 87.637512
731.000000, 87.591461
732.000000, 87.472038
733.000000, 87.434471
734.000000, 87.369217
735.000000, 87.338287
736.000000, 87.269989
737.000000, 87.216866
738.000000, 87.151657
739.000000, 87.095421
740.000000, 87.078163
741.000000, 87.070145
742.000000, 87.039856
743.000000, 87.042259
744.000000, 86.984726
745.000000, 86.971352
746.000000, 86.933495
747.000000, 86.950249
748.000000, 86.971817
749.000000, 86.986900
750.000000, 86.937370
751.000000, 87.049423
752.000000, 87.009575
753.000000, 87.027184
754.000000, 87.048119
755.000000, 87.104729
756.000000, 87.134430
757.000000, 87.117996
758.000000, 87.175468
759.000000, 87.217270
760.000000, 87.245979
761.000000, 87.262253
762.000000, 87.295166
763.000000, 87.364922
764.000000, 87.368324
765.000000, 87.406769
766.000000, 87.431702
767.000000, 87.474731
768.000000, 87.526146
769.000000, 87.520424
770.000000, 87.597717
771.000000, 87.624603
772.000000, 87.620476
773.000000, 87.611671
774.000000, 87.630425
775.000000, 87.694176
776.000000, 87.742180
777.000000, 87.744858
778.000000, 87.708076
779.000000, 87.748512
780.000000, 87.802528
781.000000, 87.818108
782.000000, 87.758133
783.000000, 87.709312
784.000000, 87.759171
785.000000, 87.743340
786.000000, 87.801338
787.000000, 87.711952
788.000000, 87.732735
789.000000, 87.792656
790.000000, 87.720634
791.000000, 87.693611
792.000000, 87.591904
793.000000, 87.678925
794.000000, 87.547958
795.000000, 87.549568
796.000000, 87.432381
797.000000, 87.456093
798.000000, 87.313858
799.000000, 87.312233
800.000000, 86.555641
801.000000, 86.465477
802.000000, 86.407890
803.000000, 86.223969
804.000000, 86.214134
805.000000, 86.129555
806.000000, 85.997864
807.000000, 86.000732
808.000000, 85.846397
809.000000, 85.758011
810.000000, 85.709793
811.000000, 85.534554
812.000000, 85.467842
813.000000, 85.383011
814.000000, 85.208778
815.000000, 85.099884
816.000000, 85.001862
817.000000, 84.971527
818.000000, 84.796936
819.000000, 84.731949
820.000000, 84.589333
821.000000, 84.534195
822.000000, 84.282883
823.000000, 84.259995
824.000000, 84.142624
825.000000, 83.994469
826.000000, 83.976883
827.000000, 83.844345
828.000000, 83.658379
829.000000, 83.579262
830.000000, 83.565483
831.000000, 83.417038
832.000000, 83.274353
833.000000, 83.239342
834.000000, 83.229805
835.000000, 83.096054
836.000000, 83.066864
837.000000, 83.057098
838.000000, 82.874451
839.000000, 82.904228
840.000000, 83.008171
841.000000, 82.845650
842.000000, 82.837936
843.000000, 82.816719
844.000000, 82.788239
845.000000, 82.872711
846.000000, 82.862381
847.000000, 82.814003
848.000000, 82.924690
849.000000, 82.953819
850.000000, 82.953201
851.000000, 82.926918
852.000000, 82.991394
853.000000, 82.963501
854.000000, 83.109711
855.000000, 83.172684
856.000000, 83.185822
857.000000, 83.309425
858.000000, 83.371712
859.000000, 83.458412
860.000000, 83.536217
861.000000, 83.688599
862.000000, 83.719765
863.000000, 83.840088
864.000000, 83.955666
865.000000, 83.987534
866.000000, 84.093208
867.000000, 84.115715
868.000000, 84.234528
869.000000, 84.421379
870.000000, 84.380074
871.000000, 84.550423
872.000000, 84.640671
873.000000, 84.631737
874.000000, 84.867928
875.000000, 84.872421
876.000000, 85.017548
877.000000, 84.959480
878.000000, 85.075485
879.000000, 85.225037
880.000000, 85.150024
881.000000, 85.128105
882.000000, 85.295731
883.000000, 85.293701
884.000000, 85.244987
885.000000, 85.356461
886.000000, 85.219315
887.000000, 85.263290
888.000000, 85.213303
889.000000, 85.241234
890.000000, 85.206398
891.000000, 85.137299
892.000000, 85.127472
893.000000, 85.063927
894.000000, 85.013908
895.000000, 84.874512
896.000000, 84.738998
897.000000, 84.705177
898.000000, 84.645096
899.000000, 84.486160
900.000000, 84.473633
901.000000, 84.355743
902.000000, 84.172989
903.000000, 84.098579
904.000000, 83.944878
905.000000, 83.799187
906.000000, 83.684418
907.000000, 83.591202
908.000000, 83.424721
909.000000, 83.374260
910.000000, 83.123062
911.000000, 83.062302
912.000000, 82.910065
913.000000, 82.877190
914.000000, 82.674637
915.000000, 82.500443
916.000000, 82.433228
917.000000, 82.249161
918.000000, 82.187904
919.000000, 81.999176
920.000000, 81.962387
921.000000, 81.835815
922.000000, 81.794212
923.000000, 81.649223
924.000000, 81.548225
925.000000, 81.559792
926.000000, 81.380043
927.000000, 81.398735
928.000000, 81.346802
929.000000, 81.347687
930.000000, 81.259933
931.000000, 81.175552
932.000000, 81.224602
933.000000, 81.141319
934.000000, 81.292686
935.000000, 81.230957
936.000000, 81.210350
937.000000, 81.125732
938.000000, 81.232567
939.000000, 81.270645
940.000000, 81.230782
941.000000, 81.334778
942.000000, 81.381989
943.000000, 81.485275
944.000000, 81.566193
945.000000, 81.642853
946.000000, 81.651398
947.000000, 81.741875
948.000000, 81.906937
949.000000, 81.910858
950.000000, 82.055901
951.000000, 82.162682
952.000000, 82.301765
953.000000, 82.411591
954.000000, 82.561371
955.000000, 82.622780
956.000000, 82.692177
957.000000, 82.846527
958.000000, 82.996422
959.000000, 83.176094
960.000000, 83.293053
961.000000, 83.386353
962.000000, 83.542595
963.000000, 83.680969
964.000000, 83.878624
965.000000, 83.966339
966.000000, 84.091309
967.000000, 84.154213
968.000000, 84.170151
969.000000, 84.279282
970.000000, 84.452927
971.000000, 84.546265
972.000000, 84.612450
973.000000, 84.668922
974.000000, 84.825447
975.000000, 84.893402
976.000000, 84.953598
977.000000, 84.868652
978.000000, 84.827896
979.000000, 84.962151
980.000000, 85.003212
981.000000, 85.006607
982.000000, 84.889389
983.000000, 85.015236
984.000000, 84.995071
985.000000, 84.900429
986.000000, 84.999947
987.000000, 84.869186
988.000000, 84.724457
989.000000, 84.686958
990.000000, 84.467484
991.000000, 84.589478
992.000000, 84.380791
993.000000, 84.293076
994.000000, 84.126801
995.000000, 83.944870
996.000000, 83.870712
997.000000, 83.691238
998.000000, 83.510231
999.000000, 83.385269
1000.000000, 83.148148
1001.000000, 82.979111
1002.000000, 82.787437
1003.000000, 82.542870
1004.000000, 82.385567
1005.000000, 82.230644
1006.000000, 82.006226
1007.000000, 81.712547
1008.000000, 81.493744
1009.000000, 81.257729
1010.000000, 81.068909
1011.000000, 80.849663
1012.000000, 80.497093
1013.000000, 80.392082
1014.000000, 80.162521
1015.000000, 79.847809
1016.000000, 79.738358
1017.000000, 79.359398
1018.000000, 79.173126
1019.000000, 79.011192
1020.000000, 78.734848
1021.000000, 78.545753
1022.000000, 78.345177
1023.000000, 78.123894
1024.000000, 77.809235
1025.000000, 77.811470
1026.000000, 77.565750
1027.000000, 77.281532
1028.000000, 77.061981
1029.000000, 76.938934
1030.000000, 76.794319
1031.000000, 76.668419
1032.000000, 76.538025
1033.000000, 76.310554
1034.000000, 76.212997
1035.000000, 76.096687
1036.000000, 75.928528
1037.000000, 75.933563
1038.000000, 75.774765
1039.000000, 75.699799
1040.000000, 75.564728
1041.000000, 75.517670
1042.000000, 75.409851
1043.000000, 75.344002
1044.000000, 75.339912
1045.000000, 75.314651
1046.000000, 75.290779
1047.000000, 75.210701
1048.000000, 75.193581
1049.000000, 75.279663
1050.000000, 75.251274
1051.000000, 75.206795
1052.000000, 75.306396
1053.000000, 75.300781
1054.000000, 75.296249
1055.000000, 75.441673
1056.000000, 75.516281
1057.000000, 75.536270
1058.000000, 75.646912
1059.000000, 75.713577
1060.000000, 75.726814
1061.000000, 76.000092
1062.000000, 76.007599
1063.000000, 76.196014
1064.000000, 76.326462
1065.000000, 76.426468
1066.000000, 76.691559
1067.000000, 76.722755
1068.000000, 76.863136
1069.000000, 77.086601
1070.000000, 77.225861
1071.000000, 77.469025
1072.000000, 77.655685
1073.000000, 77.790474
1074.000000, 78.070602
1075.000000, 78.177780
1076.000000, 78.444984
1077.000000, 78.536057
1078.000000, 78.795158
1079.000000, 79.048317
1080.000000, 79.161255
1081.000000, 79.481499
1082.000000, 79.654572
1083.000000, 79.844681
1084.000000, 80.035576
1085.000000, 80.278427
1086.000000, 80.506432
1087.000000, 80.759918
1088.000000, 80.910515
1089.000000, 81.109314
1090.000000, 81.321144
1091.000000, 81.636810
1092.000000, 81.726089
1093.000000, 81.968987
1094.000000, 82.195656
1095.000000, 82.414719
1096.000000, 82.648872
1097.000000, 82.813385
1098.000000, 83.003387
1099.000000, 83.169472
1100.000000, 83.414749
1101.000000, 83.502121
1102.000000, 83.637527
1103.000000, 83.826912
1104.000000, 83.977493
1105.000000, 84.027512
1106.000000, 84.335533
1107.000000, 84.310707
1108.000000, 84.490623
1109.000000, 84.523163
1110.000000, 84.612289
1111.000000, 84.704170
1112.000000, 84.740479
1113.000000, 84.941086
1114.000000, 85.018059
1115.000000, 85.059647
1116.000000, 84.970924
1117.000000, 84.904808
1118.000000, 85.027046
1119.000000, 85.024513
1120.000000, 85.067337
1121.000000, 84.997856
1122.000000, 84.999557
1123.000000, 84.981232
1124.000000, 84.851440
1125.000000, 84.646355
1126.000000, 84.710083
1127.000000, 84.611153
1128.000000, 84.451904
1129.000000, 84.421623
1130.000000, 84.243698
1131.000000, 84.182144
1132.000000, 83.995598
1133.000000, 83.859932
1134.000000, 83.727066
1135.000000, 83.560776
1136.000000, 83.370285
1137.000000, 83.245178
1138.000000, 83.058853
1139.000000, 82.919952
1140.000000, 82.718315
1141.000000, 82.557426
1142.000000, 82.368782
1143.000000, 82.223976
1144.000000, 81.991783
1145.000000, 81.749458
1146.000000, 81.538071
1147.000000, 81.334641
1148.000000, 81.076447
1149.000000, 80.952194
1150.000000, 80.739075
1151.000000, 80.521027
1152.000000, 80.315956
1153.000000, 79.982941
1154.000000, 79.851303
1155.000000, 79.656853
1156.000000, 79.488258
1157.000000, 79.120049
1158.000000, 79.052574
1159.000000, 78.764244
1160.000000, 78.551285
1161.000000, 78.260200
1162.000000, 78.127495
1163.000000, 77.933876
1164.000000, 77.847702
1165.000000, 77.540329
1166.000000, 77.292847
1167.000000, 77.130699
1168.000000, 76.962036
1169.000000, 76.713638
1170.000000, 76.640381
1171.000000, 76.374695
1172.000000, 76.196953
1173.000000, 75.968910
1174.000000, 75.823265
1175.000000, 75.612709
1176.000000, 75.464279
1177.000000, 75.288597
1178.000000, 75.158722
1179.000000, 74.966949
1180.000000, 74.918571
1181.000000, 74.774475
1182.000000, 74.573845
1183.000000, 74.459396
1184.000000, 74.411430
1185.000000, 74.214684
1186.000000, 74.175514
1187.000000, 74.025452
1188.000000, 73.868179
1189.000000, 73.743164
1190.000000, 73.720543
1191.000000, 73.713394
1192.000000, 73.575768
1193.000000, 73.607597
1194.000000, 73.496819
1195.000000, 73.497978
1196.000000, 73.441559
1197.000000, 73.384697
1198.000000, 73.422775
1199.000000, 73.504745
1200.000000, 73.431892
1201.000000, 73.395294
1202.000000, 73.396164
1203.000000, 73.519562
1204.000000, 73.468613
1205.000000, 73.494003
1206.000000, 73.499031
1207.000000, 73.562172
1208.000000, 73.591164
1209.000000, 73.742607
1210.000000, 73.711693
1211.000000, 73.778496
1212.000000, 73.890076
1213.000000, 73.960403
1214.000000, 74.031136
1215.000000, 74.129059
1216.000000, 74.174179
1217.000000, 74.371437
1218.000000, 74.390625
1219.000000, 74.543777
1220.000000, 74.563309
1221.000000, 74.783905
1222.000000, 74.946579
1223.000000, 75.012527
1224.000000, 75.115974
1225.000000, 75.331589
1226.000000, 75.472664
1227.000000, 75.599243
1228.000000, 75.744507
1229.000000, 75.901642
1230.000000, 76.006683
1231.000000, 76.270767
1232.000000, 76.383499
1233.000000, 76.510910
1234.000000, 76.749893
1235.000000, 76.923157
1236.000000, 77.138504
1237.000000, 77.315804
1238.000000, 77.471817
1239.000000, 77.637177
1240.000000, 77.930031
1241.000000, 78.093407
1242.000000, 78.254807
1243.000000, 78.469292
1244.000000, 78.668037
1245.000000, 78.906326
1246.000000, 79.076851
1247.000000, 79.201881
1248.000000, 79.395447
1249.000000, 79.719963
1250.000000, 79.796440
1251.000000, 80.047516
1252.000000, 80.180740
1253.000000, 80.483589
1254.000000, 80.610291
1255.000000, 80.811958
1256.000000, 80.951431
1257.000000, 81.300507
1258.000000, 81.383286
1259.000000, 81.533722
1260.000000, 81.737366
1261.000000, 81.973389
1262.000000, 82.068108
1263.000000, 82.311714
1264.000000, 82.512428
1265.000000, 82.663574
1266.000000, 82.816406
1267.000000, 83.012672
1268.000000, 83.061859
1269.000000, 83.322052
1270.000000, 83.468124
1271.000000, 83.675659
1272.000000, 83.728012
1273.000000, 83.815865
1274.000000, 83.984985
1275.000000, 84.117981
1276.000000, 84.255928
1277.000000, 84.427780
1278.000000, 84.480698
1279.000000, 84.645477
1280.000000, 84.780197
1281.000000, 84.824989
1282.000000, 84.874702
1283.000000, 85.035156
1284.000000, 85.057739
1285.000000, 85.271011
1286.000000, 85.244659
1287.000000, 85.291878
1288.000000, 85.364769
1289.000000, 85.290565
1290.000000, 85.362038
1291.000000, 85.362938
1292.000000, 85.511154
1293.000000, 85.567764
1294.000000, 85.421867
1295.000000, 85.425606
1296.000000, 85.526916
1297.000000, 85.470779
1298.000000, 85.535965
1299.000000, 85.522148
1300.000000, 85.458214
1301.000000, 85.456047
1302.000000, 85.351379
1303.000000, 85.338516
1304.000000, 85.299423
1305.000000, 85.255112
1306.000000, 85.139503
1307.000000, 85.101944
1308.000000, 85.022881
1309.000000, 84.921661
1310.000000, 84.977127
1311.000000, 84.831726
1312.000000, 84.680138
1313.000000, 84.528366
1314.000000, 84.517395
1315.000000, 84.421806
1316.000000, 84.320503
1317.000000, 84.127785
1318.000000, 84.058144
1319.000000, 83.955956
1320.000000, 83.816795
1321.000000, 83.674995
1322.000000, 83.491501
1323.000000, 83.467117
1324.000000, 83.235519
1325.000000, 83.238968
1326.000000, 83.075592
1327.000000, 82.827507
1328.000000, 82.711617
1329.000000, 82.563026
1330.000000, 82.495285
1331.000000, 82.255722
1332.000000, 82.145981
1333.000000, 81.891495
1334.000000, 81.926643
1335.000000, 81.689476
1336.000000, 81.590248
1337.000000, 81.343170
1338.000000, 81.263886
1339.000000, 81.041321
1340.000000, 80.899551
1341.000000, 80.784721
1342.000000, 80.550598
1343.000000, 80.368652
1344.000000, 80.279732
1345.000000, 80.172546
1346.000000, 79.900330
1347.000000, 79.759468
1348.000000, 79.669754
1349.000000, 79.400078
1350.000000, 79.355171
1351.000000, 79.189102
1352.000000, 79.032867
1353.000000, 78.909393
1354.000000, 78.639000
1355.000000, 78.554466
1356.000000, 78.374786
1357.000000, 78.201912
1358.000000, 78.039703
1359.000000, 78.049377
1360.000000, 77.898621
1361.000000, 77.712044
1362.000000, 77.564232
1363.000000, 77.484344
1364.000000, 77.292564
1365.000000, 77.127716
1366.000000, 77.095436
1367.000000, 76.937737
1368.000000, 76.792900
1369.000000, 76.748978
1370.000000, 76.590065
1371.000000, 76.418434
1372.000000, 76.427040
1373.000000, 76.245140
1374.000000, 76.109619
1375.000000, 76.029053
1376.000000, 75.959808
1377.000000, 75.930099
1378.000000, 75.767136
1379.000000, 75.722542
1380.000000, 75.591187
1381.000000, 75.616089
1382.000000, 75.551781
1383.000000, 75.354309
1384.000000, 75.383614
1385.000000, 75.228958
1386.000000, 75.227867
1387.000000, 75.164207
1388.000000, 75.106178
1389.000000, 75.069649
1390.000000, 74.942169
1391.000000, 75.039352
1392.000000, 74.939522
1393.000000, 74.930519
1394.000000, 74.917511
1395.000000, 74.849442
1396.000000, 74.829460
1397.000000, 74.843475
1398.000000, 74.806320
1399.000000, 74.771523
1400.000000, 74.727890
1401.000000, 74.754395
1402.000000, 74.878189
1403.000000, 74.859802
1404.000000, 74.779846
1405.000000, 74.766060
1406.000000, 74.854088
1407.000000, 74.748817
1408.000000, 74.861771
1409.000000, 74.886322
1410.000000, 74.888519
1411.000000, 74.904724
1412.000000, 74.860939
1413.000000, 74.948341
1414.000000, 74.921066
1415.000000, 74.940376
1416.000000, 74.972397
1417.000000, 75.012207
1418.000000, 74.932571
1419.000000, 75.049446
1420.000000, 75.004532
1421.000000, 75.048103
1422.000000, 75.136627
1423.000000, 75.079445
1424.000000, 75.077187
1425.000000, 75.169014
1426.000000, 75.179108
1427.000000, 75.288246
1428.000000, 75.359352
1429.000000, 75.449219
1430.000000, 75.459038
1431.000000, 75.547539
1432.000000, 75.702950
1433.000000, 75.745155
1434.000000, 76.007011
1435.000000, 76.026794
1436.000000, 76.110146
1437.000000, 76.271080
1438.000000, 76.338013
1439.000000, 76.534042
1440.000000, 76.601059
1441.000000, 76.697121
1442.000000, 76.849571
1443.000000, 76.990509
1444.000000, 77.183640
1445.000000, 77.303902
1446.000000, 77.365074
1447.000000, 77.575165
1448.000000, 77.601692
1449.000000, 77.895515
1450.000000, 77.943298
1451.000000, 78.109604
1452.000000, 78.272507
1453.000000, 78.389572
1454.000000, 78.550140
1455.000000, 78.663597
1456.000000, 78.816277
1457.000000, 78.911865
1458.000000, 79.070984
1459.000000, 79.177475
1460.000000, 79.412453
1461.000000, 79.476936
1462.000000, 79.630859
1463.000000, 79.822746
1464.000000, 80.052933
1465.000000, 80.117729
1466.000000, 80.204834
1467.000000, 80.387337
1468.000000, 80.521042
1469.000000, 80.702904
1470.000000, 80.802048
1471.000000, 81.054886
1472.000000, 81.157677
1473.000000, 81.186325
1474.000000, 81.468979
1475.000000, 81.515778
1476.000000, 81.727196
1477.000000, 81.965607
1478.000000, 82.025116
1479.000000, 82.112679
1480.000000, 82.332443
1481.000000, 82.398323
1482.000000, 82.578438
1483.000000, 82.777634
1484.000000, 82.873955
1485.000000, 83.057915
1486.000000, 83.134804
1487.000000, 83.308708
1488.000000, 83.479904
1489.000000, 83.636765
1490.000000, 83.627388
1491.000000, 83.812363
1492.000000, 83.794434
1493.000000, 84.022392
1494.000000, 84.333885
1495.000000, 84.328613
1496.000000, 84.443748
1497.000000, 84.554070
1498.000000, 84.673965
1499.000000, 84.882179
1500.000000, 84.978241
1501.000000, 85.007133
1502.000000, 85.075714
1503.000000, 85.149902
1504.000000, 85.273239
1505.000000, 85.428497
1506.000000, 85.546333
1507.000000, 85.597900
1508.000000, 85.553154
1509.000000, 85.798813
1510.000000, 85.796707
1511.000000, 85.914597
1512.000000, 85.937965
1513.000000, 86.022636
1514.000000, 86.157104
1515.000000, 86.178467
1516.000000, 86.333809
1517.000000, 86.212212
1518.000000, 86.316635
1519.000000, 86.379036
1520.000000, 86.495468
1521.000000, 86.446991
1522.000000, 86.526169
1523.000000, 86.611557
1524.000000, 86.621239
1525.000000, 86.621048
1526.000000, 86.674225
1527.000000, 86.840073
1528.000000, 86.756668
1529.000000, 86.693512
1530.000000, 86.771118
1531.000000, 86.827614
1532.000000, 86.710251
1533.000000, 86.780403
1534.000000, 86.752548
1535.000000, 86.793571
1536.000000, 86.721786
1537.000000, 86.718773
1538.000000, 86.708321
1539.000000, 86.796661
1540.000000, 86.649780
1541.000000, 86.762032
1542.000000, 86.787430
1543.000000, 86.719780
1544.000000, 86.657028
1545.000000, 86.636765
1546.000000, 86.583229
1547.000000, 86.651978
1548.000000, 86.623520
1549.000000, 86.523643
1550.000000, 86.612541
1551.000000, 86.491585
1552.000000, 86.426666
1553.000000, 86.530006
1554.000000, 86.432907
1555.000000, 86.333878
1556.000000, 86.271088
1557.000000, 86.255333
1558.000000, 86.261498
1559.000000, 86.072754
1560.000000, 86.106499
1561.000000, 85.900368
1562.000000, 85.977623
1563.000000, 85.842003
1564.000000, 85.761024
1565.000000, 85.738625
1566.000000, 85.696182
1567.000000, 85.590813
1568.000000, 85.457764
1569.000000, 85.404381
1570.000000, 85.356911
1571.000000, 85.338943
1572.000000, 85.129768
1573.000000, 85.125145
1574.000000, 85.033531
1575.000000, 84.832207
1576.000000, 84.778618
1577.000000, 84.587875
1578.000000, 84.608368
1579.000000, 84.445099
1580.000000, 84.376411
1581.000000, 84.326607
1582.000000, 84.096893
1583.000000, 84.098557
1584.000000, 84.034897
1585.000000, 83.847275
1586.000000, 83.702499
1587.000000, 83.744217
1588.000000, 83.658615
1589.000000, 83.476624
1590.000000, 83.432373
1591.000000, 83.249588
1592.000000, 83.262833
1593.000000, 82.976669
1594.000000, 82.934525
1595.000000, 82.877922
1596.000000, 82.801209
1597.000000, 82.579758
1598.000000, 82.530632
1599.000000, 82.455421
1600.000000, 82.370682
1601.000000, 82.252319
1602.000000, 82.223015
1603.000000, 82.029274
1604.000000, 81.935654
1605.000000, 81.899246
1606.000000, 81.778542
1607.000000, 81.726036
1608.000000, 81.601562
1609.000000, 81.522041
1610.000000, 81.361618
1611.000000, 81.258682
1612.000000, 81.110947
1613.000000, 81.090515
1614.000000, 80.917397
1615.000000, 80.869141
1616.000000, 80.759033
1617.000000, 80.682297
1618.000000, 80.496040
1619.000000, 80.503967
1620.000000, 80.435577
1621.000000, 80.256973
1622.000000, 80.186005
1623.000000, 80.114105
1624.000000, 79.911736
1625.000000, 79.990150
1626.000000, 79.795876
1627.000000, 79.813835
1628.000000, 79.718086
1629.000000, 79.573715
1630.000000, 79.516098
1631.000000, 79.377457
1632.000000, 79.289139
1633.000000, 79.188469
1634.000000, 79.094360
1635.000000, 79.032944
1636.000000, 79.056625
1637.000000, 78.970566
1638.000000, 78.728333
1639.000000, 78.689186
1640.000000, 78.708565
1641.000000, 78.545204
1642.000000, 78.538559
1643.000000, 78.396614
1644.000000, 78.300659
1645.000000, 78.190979
1646.000000, 78.123528
1647.000000, 78.041687
1648.000000, 77.901993
1649.000000, 77.739967
1650.000000, 77.698273
1651.000000, 77.753777
1652.000000, 77.752556
1653.000000, 77.586510
1654.000000, 77.510811
1655.000000, 77.443535
1656.000000, 77.345314
1657.000000, 77.258209
1658.000000, 77.127342
1659.000000, 77.014778
1660.000000, 76.883842
1661.000000, 76.789413
1662.000000, 76.752457
1663.000000, 76.477501
1664.000000, 76.325317
1665.000000, 76.211372
1666.000000, 76.055023
1667.000000, 75.920242
1668.000000, 75.783768
1669.000000, 75.698166
1670.000000, 75.536491
1671.000000, 75.527916
1672.000000, 75.670700
1673.000000, 75.593651
1674.000000, 75.735542
1675.000000, 75.751030
1676.000000, 75.799179
1677.000000, 75.852150
1678.000000, 75.830338
1679.000000, 75.800659
1680.000000, 75.905975
1681.000000, 75.811844
1682.000000, 75.796158
1683.000000, 75.693291
1684.000000, 75.609619
1685.000000, 75.614548
1686.000000, 75.456093
1687.000000, 75.305870
1688.000000, 75.378349
1689.000000, 75.254921
1690.000000, 75.285530
1691.000000, 75.211349
1692.000000, 75.209579
1693.000000, 75.192635
1694.000000, 75.218506
1695.000000, 75.185303
1696.000000, 75.251396
1697.000000, 75.112030
1698.000000, 75.174355
1699.000000, 75.128113
1700.000000, 75.084999
1701.000000, 75.167671
1702.000000, 75.093758
1703.000000, 75.151711
1704.000000, 75.221321
1705.000000, 75.309708
1706.000000, 75.304169
1707.000000, 75.300171
1708.000000, 75.345810
1709.000000, 75.427124
1710.000000, 75.464287
1711.000000, 75.609779
1712.000000, 75.622429
1713.000000, 75.542946
1714.000000, 75.560822
1715.000000, 75.612633
1716.000000, 75.682053
1717.000000, 75.653252
1718.000000, 75.662209
1719.000000, 75.629028
1720.000000, 75.703148
1721.000000, 75.698753
1722.000000, 75.815948
1723.000000, 75.777992
1724.000000, 75.823563
1725.000000, 75.794083
1726.000000, 75.901260
1727.000000, 75.957062
1728.000000, 76.021881
1729.000000, 76.112083
1730.000000, 76.120621
1731.000000, 76.189079
1732.000000, 76.295265
1733.000000, 76.351509
1734.000000, 76.358986
1735.000000, 76.453331
1736.000000, 76.510170
1737.000000, 76.470428
1738.000000, 76.650734
1739.000000, 76.820129
1740.000000, 76.753395
1741.000000, 76.922096
1742.000000, 77.059479
1743.000000, 77.200058
1744.000000, 77.249084
1745.000000, 77.336441
1746.000000, 77.474556
1747.000000, 77.630470
1748.000000, 77.673836
1749.000000, 77.764267
1750.000000, 77.816963
1751.000000, 77.982948
1752.000000, 78.146622
1753.000000, 78.161613
1754.000000, 78.270180
1755.000000, 78.352173
1756.000000, 78.404823
1757.000000, 78.487633
1758.000000, 78.540588
1759.000000, 78.702293
1760.000000, 78.662231
1761.000000, 78.786957
1762.000000, 79.023956
1763.000000, 78.950211
1764.000000, 79.160713
1765.000000, 79.199287
1766.000000, 79.220482
1767.000000, 79.349358
1768.000000, 79.355789
1769.000000, 79.489021
1770.000000, 79.576355
1771.000000, 79.725662
1772.000000, 79.794708
1773.000000, 79.811302
1774.000000, 79.945206
1775.000000, 80.047478
1776.000000, 80.154411
1777.000000, 80.313614
1778.000000, 80.368507
1779.000000, 80.490547
1780.000000, 80.642708
1781.000000, 80.753998
1782.000000, 80.740227
1783.000000, 80.884926
1784.000000, 81.004562
1785.000000, 80.997429
1786.000000, 81.188271
1787.000000, 81.295486
1788.000000, 81.336990
1789.000000, 81.425941
1790.000000, 81.514885
1791.000000, 81.670639
1792.000000, 81.706573
1793.000000, 81.783325
1794.000000, 81.884476
1795.000000, 82.040474
1796.000000, 82.034393
1797.000000, 82.172218
1798.000000, 82.181129
1799.000000, 82.231514
1800.000000, 82.413063
1801.000000, 82.348701
1802.000000, 82.487206
1803.000000, 82.552963
1804.000000, 82.639694
1805.000000, 82.787811
1806.000000, 82.863113
1807.000000, 82.937584
1808.000000, 82.993622
1809.000000, 83.039902
1810.000000, 83.164635
1811.000000, 83.158173
1812.000000, 83.175453
1813.000000, 83.358788
1814.000000, 83.374771
1815.000000, 83.440689
1816.000000, 83.601387
1817.000000, 83.612755
1818.000000, 83.690880
1819.000000, 83.842506
1820.000000, 83.846298
1821.000000, 83.929909
1822.000000, 83.958656
1823.000000, 84.168716
1824.000000, 84.211388
1825.000000, 84.202187
1826.000000, 84.274979
1827.000000, 84.328163
1828.000000, 84.498428
1829.000000, 84.452728
1830.000000, 84.612152
1831.000000, 84.608521
1832.000000, 84.765152
1833.000000, 84.692749
1834.000000, 84.792343
1835.000000, 84.939201
1836.000000, 84.829102
1837.000000, 85.035637
1838.000000, 85.048248
1839.000000, 85.099472
1840.000000, 85.229599
1841.000000, 85.243660
1842.000000, 85.448090
1843.000000, 85.263802
1844.000000, 85.479958
1845.000000, 85.554718
1846.000000, 85.510353
1847.000000, 85.623009
1848.000000, 85.732636
1849.000000, 85.794868
1850.000000, 85.755203
1851.000000, 85.806053
1852.000000, 85.896126
1853.000000, 85.897308
1854.000000, 86.017433
1855.000000, 85.973564
1856.000000, 86.169037
1857.000000, 86.188911
1858.000000, 86.197113
1859.000000, 86.238220
1860.000000, 86.312660
1861.000000, 86.325691
1862.000000, 86.353340
1863.000000, 86.380600
1864.000000, 86.356964
1865.000000, 86.547417
1866.000000, 86.540726
1867.000000, 86.469185
1868.000000, 86.596909
1869.000000, 86.549004
1870.000000, 86.546852
1871.000000, 86.691284
1872.000000, 86.618790
1873.000000, 86.811058
1874.000000, 86.719528
1875.000000, 86.802216
1876.000000, 86.947647
1877.000000, 86.788368
1878.000000, 86.836647
1879.000000, 86.835594
1880.000000, 86.870461
1881.000000, 86.749878
1882.000000, 86.912842
1883.000000, 86.899269
1884.000000, 86.856926
1885.000000, 86.941322
1886.000000, 86.927658
1887.000000, 86.886307
1888.000000, 86.796013
1889.000000, 86.844421
1890.000000, 86.942215
1891.000000, 86.954361
1892.000000, 86.808464
1893.000000, 86.860924
1894.000000, 86.687943
1895.000000, 86.777000
1896.000000, 86.713402
1897.000000, 86.688339
1898.000000, 86.669289
1899.000000, 86.712288
1900.000000, 86.748451
1901.000000, 86.484871
1902.000000, 86.568626
1903.000000, 86.549248
1904.000000, 86.474167
1905.000000, 86.628433
1906.000000, 86.542198
1907.000000, 86.596855
1908.000000, 86.543671
1909.000000, 86.435249
1910.000000, 86.442284
1911.000000, 86.482445
1912.000000, 86.302246
1913.000000, 86.429825
1914.000000, 86.394981
1915.000000, 86.438881
1916.000000, 86.285568
1917.000000, 86.289703
1918.000000, 86.208458
1919.000000, 86.263382
1920.000000, 86.262550
1921.000000, 86.201546
1922.000000, 86.190186
1923.000000, 86.293327
1924.000000, 86.192032
1925.000000, 86.119301
1926.000000, 86.045181
1927.000000, 86.096153
1928.000000, 86.078232
1929.000000, 85.979683
1930.000000, 85.954132
1931.000000, 85.918236
1932.000000, 85.899063
1933.000000, 85.842186
1934.000000, 85.815880
1935.000000, 85.847153
1936.000000, 85.841599
1937.000000, 85.815063
1938.000000, 85.754517
1939.000000, 85.760025
1940.000000, 85.749191
1941.000000, 85.722229
1942.000000, 85.680733
1943.000000, 85.700264
1944.000000, 85.656029
1945.000000, 85.592392
1946.000000, 85.572624
1947.000000, 85.551521
1948.000000, 85.491386
1949.000000, 85.473633
1950.000000, 85.470543
1951.000000, 85.440788
1952.000000, 85.476105
1953.000000, 85.447113
1954.000000, 85.317581
1955.000000, 85.302063
1956.000000, 85.306213
1957.000000, 85.244942
1958.000000, 85.311890
1959.000000, 85.181221
1960.000000, 85.197678
1961.000000, 85.136581
1962.000000, 85.181549
1963.000000, 85.156326
1964.000000, 85.077553
1965.000000, 84.976479
1966.000000, 85.007080
1967.000000, 84.954208
1968.000000, 84.920326
1969.000000, 84.931740
1970.000000, 84.874893
1971.000000, 84.942680
1972.000000, 84.773781
1973.000000, 84.847801
1974.000000, 84.711617
1975.000000, 84.752144
1976.000000, 84.651505
1977.000000, 84.724930
1978.000000, 84.528038
1979.000000, 84.524345
1980.000000, 84.514954
1981.000000, 84.440117
1982.000000, 84.371964
1983.000000, 84.400063
1984.000000, 84.366005
1985.000000, 84.306320
1986.000000, 84.191895
1987.000000, 84.248062
1988.000000, 84.215836
1989.000000, 84.196060
1990.000000, 84.184967
1991.000000, 84.144073
1992.000000, 84.157272
1993.000000, 84.094772
1994.000000, 83.995659
1995.000000, 83.975388
1996.000000, 83.838638
1997.000000, 83.860115
1998.000000, 83.791870
1999.000000, 83.659027
2000.000000, 83.655075
2001.000000, 83.615646
2002.000000, 83.530212
2003.000000, 83.477608
2004.000000, 83.409195
2005.000000, 83.308151
2006.000000, 83.292618
2007.000000, 83.234642
2008.000000, 83.120857
2009.000000, 83.109169
2010.000000, 83.116081
2011.000000, 83.120636
2012.000000, 82.923119
2013.000000, 82.834717
2014.000000, 82.833611
2015.000000, 82.728317
2016.000000, 82.695755
2017.000000, 82.605217
2018.000000, 82.550903
2019.000000, 82.501114
2020.000000, 82.403404
2021.000000, 82.353371
2022.000000, 82.368050
2023.000000, 82.249557
2024.000000, 82.217438
2025.000000, 82.238235
2026.000000, 82.050766
2027.000000, 81.965752
2028.000000, 81.993469
2029.000000, 81.883064
2030.000000, 81.874954
2031.000000, 81.708450
2032.000000, 81.605766
2033.000000, 81.591919
2034.000000, 81.514755
2035.000000, 81.384979
2036.000000, 81.349228
2037.000000, 81.371384
2038.000000, 81.217834
2039.000000, 81.089531
2040.000000, 81.120331
2041.000000, 81.112221
2042.000000, 81.030968
2043.000000, 80.882797
2044.000000, 80.755798
2045.000000, 80.687180
2046.000000, 80.667526
2047.000000, 80.647369
2048.000000, 80.628792
2049.000000, 80.532921
2050.000000, 80.462387
2051.000000, 80.397781
2052.000000, 80.337761
2053.000000, 80.315361
2054.000000, 80.151802
2055.000000, 80.133095
2056.000000, 80.019501
2057.000000, 80.004097
2058.000000, 80.004509
2059.000000, 79.825470
2060.000000, 79.808495
2061.000000, 79.732567
2062.000000, 79.659691
2063.000000, 79.639862
2064.000000, 79.624382
2065.000000, 79.564621
2066.000000, 79.400337
2067.000000, 79.428741
2068.000000, 79.318306
2069.000000, 79.285759
2070.000000, 79.260246
2071.000000, 79.141876
2072.000000, 79.254440
2073.000000, 79.210701
2074.000000, 79.081985
2075.000000, 79.040131
2076.000000, 78.895905
2077.000000, 78.838791
2078.000000, 78.827637
2079.000000, 78.723961
2080.000000, 78.708229
2081.000000, 78.693970
2082.000000, 78.687958
2083.000000, 78.646133
2084.000000, 78.621437
2085.000000, 78.577744
2086.000000, 78.528580
2087.000000, 78.617546
2088.000000, 78.565460
2089.000000, 78.458748
2090.000000, 78.499725
2091.000000, 78.422890
2092.000000, 78.462479
2093.000000, 78.479393
2094.000000, 78.472000
2095.000000, 78.554024
2096.000000, 78.437454
2097.000000, 78.353889
2098.000000, 78.489845
2099.000000, 78.388008
2100.000000, 78.364487
2101.000000, 78.436096
2102.000000, 78.368088
2103.000000, 78.382111
2104.000000, 78.474106
2105.000000, 78.416298
2106.000000, 78.335838
2107.000000, 78.351807
2108.000000, 78.450516
2109.000000, 78.326065
2110.000000, 78.300026
2111.000000, 78.319305
2112.000000, 78.388771
2113.000000, 78.399979
2114.000000, 78.467491
2115.000000, 78.385498
2116.000000, 78.267876
2117.000000, 78.354828
2118.000000, 78.326721
2119.000000, 78.267097
2120.000000, 78.327888
2121.000000, 78.373550
2122.000000, 78.290169
2123.000000, 78.196732
2124.000000, 78.173691
2125.000000, 78.197922
2126.000000, 78.102142
2127.000000, 77.903740
2128.000000, 77.920677
2129.000000, 77.847267
2130.000000, 77.731888
2131.000000, 77.616989
2132.000000, 77.571053
2133.000000, 77.353798
2134.000000, 77.316032
2135.000000, 77.260048
2136.000000, 77.306656
2137.000000, 77.317299
2138.000000, 77.413353
2139.000000, 77.459419
2140.000000, 77.535225
2141.000000, 77.688339
2142.000000, 77.822083
2143.000000, 77.929810
2144.000000, 78.040947
2145.000000, 78.034225
2146.000000, 78.107903
2147.000000, 78.242180
2148.000000, 78.339699
2149.000000, 78.287529
2150.000000, 78.315231
2151.000000, 78.204735
2152.000000, 78.192108
2153.000000, 78.043381
2154.000000, 78.063301
2155.000000, 77.966721
2156.000000, 77.777100
2157.000000, 77.598099
2158.000000, 77.506714
2159.000000, 77.317535
2160.000000, 77.315498
2161.000000, 77.161423
2162.000000, 77.179733
2163.000000, 77.083595
2164.000000, 77.091187
2165.000000, 77.294662
2166.000000, 77.490952
2167.000000, 77.702240
2168.000000, 77.851799
2169.000000, 78.005737
2170.000000, 78.252533
2171.000000, 78.572517
2172.000000, 78.682365
2173.000000, 78.920494
2174.000000, 79.040848
2175.000000, 79.122208
2176.000000, 79.236023
2177.000000, 79.324799
2178.000000, 79.300789
2179.000000, 79.350273
2180.000000, 79.405319
2181.000000, 79.424583
2182.000000, 79.450562
2183.000000, 79.506783
2184.000000, 79.464348
2185.000000, 79.345657
2186.000000, 79.370049
2187.000000, 79.400482
2188.000000, 79.328133
2189.000000, 79.409424
2190.000000, 79.362244
2191.000000, 79.442467
2192.000000, 79.408890
2193.000000, 79.399658
2194.000000, 79.546890
2195.000000, 79.580406
2196.000000, 79.760620
2197.000000, 79.696533
2198.000000, 79.732338
2199.000000, 79.755280
2200.000000, 79.807648
2201.000000, 79.868103
2202.000000, 79.916000
2203.000000, 79.861870
2204.000000, 79.871941
2205.000000, 80.002113
2206.000000, 80.024101
2207.000000, 79.892609
2208.000000, 80.042656
2209.000000, 79.945030
2210.000000, 80.011993
2211.000000, 80.080399
2212.000000, 80.090157
2213.000000, 80.134399
2214.000000, 80.119240
2215.000000, 80.183464
2216.000000, 80.211601
2217.000000, 80.223839
2218.000000, 80.275978
2219.000000, 80.281136
2220.000000, 80.233826
2221.000000, 80.218216
2222.000000, 80.235252
2223.000000, 80.357986
2224.000000, 80.292679
2225.000000, 80.236755
2226.000000, 80.204948
2227.000000, 80.267937
2228.000000, 80.114441
2229.000000, 80.087372
2230.000000, 80.078415
2231.000000, 80.092522
2232.000000, 80.067238
2233.000000, 79.973900
2234.000000, 80.012711
2235.000000, 79.960869
2236.000000, 79.944817
2237.000000, 79.946640
2238.000000, 79.892998
2239.000000, 79.734322
2240.000000, 79.641335
2241.000000, 79.695602
2242.000000, 79.648529
2243.000000, 79.576645
2244.000000, 79.406570
2245.000000, 79.313210
2246.000000, 79.215034
2247.000000, 79.024071
2248.000000, 78.931480
2249.000000, 78.644852
2250.000000, 78.556259
2251.000000, 78.278908
2252.000000, 78.169975
2253.000000, 77.924454
2254.000000, 77.674339
2255.000000, 77.481613
2256.000000, 77.146629
2257.000000, 76.839775
2258.000000, 76.750755
2259.000000, 76.325401
2260.000000, 76.181343
2261.000000, 75.899704
2262.000000, 75.464043
2263.000000, 75.260040
2264.000000, 74.913200
2265.000000, 74.686043
2266.000000, 74.334221
2267.000000, 74.036545
2268.000000, 73.674347
2269.000000, 73.440079
2270.000000, 73.035660
2271.000000, 72.977470
2272.000000, 72.626091
2273.000000, 72.494385
2274.000000, 72.221107
2275.000000, 72.154106
2276.000000, 72.087326
2277.000000, 71.984688
2278.000000, 71.866737
2279.000000, 71.803024
2280.000000, 71.609688
2281.000000, 71.503738
2282.000000, 71.351738
2283.000000, 71.245834
2284.000000, 71.142105
2285.000000, 70.810303
2286.000000, 70.706665
2287.000000, 70.551666
2288.000000, 70.367867
2289.000000, 70.250305
2290.000000, 70.156364
2291.000000, 69.848648
2292.000000, 69.721786
2293.000000, 69.576401
2294.000000, 69.423996
2295.000000, 69.260139
2296.000000, 69.102051
2297.000000, 68.903748
2298.000000, 68.887688
2299.000000, 68.732437
2300.000000, 68.632607
2301.000000, 68.645546
2302.000000, 68.504608
2303.000000, 68.544868
2304.000000, 68.422226
2305.000000, 68.376030
2306.000000, 68.321487
2307.000000, 68.371811
2308.000000, 68.330956
2309.000000, 68.209824
2310.000000, 68.226120
2311.000000, 68.208801
2312.000000, 68.122414
2313.000000, 68.117256
2314.000000, 68.135803
2315.000000, 68.172028
2316.000000, 68.324036
2317.000000, 68.499832
2318.000000, 68.700859
2319.000000, 69.040428
2320.000000, 69.441536
2321.000000, 69.636200
2322.000000, 70.054184
2323.000000, 70.176117
2324.000000, 70.494011
2325.000000, 70.727821
2326.000000, 70.945969
2327.000000, 71.243156
2328.000000, 71.514069
2329.000000, 71.628700
2330.000000, 71.740288
2331.000000, 71.905525
2332.000000, 71.986519
2333.000000, 72.183502
2334.000000, 72.337120
2335.000000, 72.529236
2336.000000, 72.511902
2337.000000, 72.690491
2338.000000, 72.653809
2339.000000, 72.724983
2340.000000, 72.719177
2341.000000, 72.790596
2342.000000, 72.778725
2343.000000, 72.735001
2344.000000, 72.776901
2345.000000, 72.677406
2346.000000, 72.768539
2347.000000, 72.845131
2348.000000, 72.674706
2349.000000, 72.758850
2350.000000, 72.780594
2351.000000, 72.633064
2352.000000, 72.748093
2353.000000, 72.821762
2354.000000, 72.774239
2355.000000, 72.991966
2356.000000, 73.054550
2357.000000, 72.967789
2358.000000, 73.055611
2359.000000, 73.056015
2360.000000, 73.101257
2361.000000, 73.072990
2362.000000, 73.042709
2363.000000, 73.001427
2364.000000, 72.983841
2365.000000, 73.030075
2366.000000, 72.965225
2367.000000, 73.077240
2368.000000, 73.065086
2369.000000, 73.201843
2370.000000, 73.264252
2371.000000, 73.347687
2372.000000, 73.272049
2373.000000, 73.301323
2374.000000, 73.343346
2375.000000, 73.452438
2376.000000, 73.441277
2377.000000, 73.579109
2378.000000, 73.521606
2379.000000, 73.509338
2380.000000, 73.555771
2381.000000, 73.457840
2382.000000, 73.464233
2383.000000, 73.416725
2384.000000, 73.328758
2385.000000, 73.312309
2386.000000, 73.321281
2387.000000, 73.120834
2388.000000, 73.210403
2389.000000, 73.156937
2390.000000, 73.150032
2391.000000, 73.068237
2392.000000, 72.989014
2393.000000, 73.001946
2394.000000, 72.942825
2395.000000, 72.884842
2396.000000, 72.786346
2397.000000, 72.858200
2398.000000, 72.742424
2399.000000, 72.730354
2400.000000, 72.768631
2401.000000, 72.677147
2402.000000, 72.649559
2403.000000, 72.722229
2404.000000, 72.817596
2405.000000, 72.876991
2406.000000, 72.977028
2407.000000, 73.109749
2408.000000, 73.188431
2409.000000, 73.324295
2410.000000, 73.459236
2411.000000, 73.571388
2412.000000, 73.588028
2413.000000, 73.761971
2414.000000, 73.784721
2415.000000, 73.888512
2416.000000, 74.074539
2417.000000, 73.971901
2418.000000, 74.005447
2419.000000, 74.136498
2420.000000, 73.999771
2421.000000, 74.083023
2422.000000, 74.059608
2423.000000, 74.077873
2424.000000, 74.045128
2425.000000, 74.121307
2426.000000, 73.991348
2427.000000, 74.035622
2428.000000, 73.926559
2429.000000, 73.881187
2430.000000, 73.753563
2431.000000, 73.795685
2432.000000, 73.561768
2433.000000, 73.540657
2434.000000, 73.447540
2435.000000, 73.288643
2436.000000, 73.126312
2437.000000, 73.026764
2438.000000, 72.927719
2439.000000, 72.720207
2440.000000, 72.528290
2441.000000, 72.334694
2442.000000, 71.976807
2443.000000, 71.871254
2444.000000, 71.393608
2445.000000, 71.316299
2446.000000, 70.957794
2447.000000, 70.723984
2448.000000, 70.354393
2449.000000, 70.008377
2450.000000, 69.798347
2451.000000, 69.442955
2452.000000, 69.162010
2453.000000, 68.904480
2454.000000, 68.755280
2455.000000, 68.358856
2456.000000, 68.046501
2457.000000, 67.782661
2458.000000, 67.548981
2459.000000, 67.419594
2460.000000, 67.262321
2461.000000, 67.116997
2462.000000, 67.015610
2463.000000, 67.181679
2464.000000, 67.144730
2465.000000, 67.339798
2466.000000, 67.461433
2467.000000, 67.548531
2468.000000, 67.815521
2469.000000, 68.089546
2470.000000, 68.278381
2471.000000, 68.521095
2472.000000, 68.670532
2473.000000, 68.894592
2474.000000, 69.025566
2475.000000, 69.155167
2476.000000, 69.344505
2477.000000, 69.441612
2478.000000, 69.649666
2479.000000, 69.580963
2480.000000, 69.711647
2481.000000, 69.791008
2482.000000, 69.796440
2483.000000, 69.752975
2484.000000, 69.706413
2485.000000, 69.665596
2486.000000, 69.741074
2487.000000, 69.565910
2488.000000, 69.546082
2489.000000, 69.481895
2490.000000, 69.452774
2491.000000, 69.425552
2492.000000, 69.398262
2493.000000, 69.250748
2494.000000, 69.210785
2495.000000, 69.235733
2496.000000, 69.113602
2497.000000, 69.052246
2498.000000, 69.059570
2499.000000, 68.964172
2500.000000, 68.803406
2501.000000, 68.721924
2502.000000, 68.812843
2503.000000, 68.619522
2504.000000, 68.563652
2505.000000, 68.633057
2506.000000, 68.494804
2507.000000, 68.409462
2508.000000, 68.458466
2509.000000, 68.410629
2510.000000, 68.407219
2511.000000, 68.388298
2512.000000, 68.420853
2513.000000, 68.410530
2514.000000, 68.370758
2515.000000, 68.463974
2516.000000, 68.571869
2517.000000, 68.674408
2518.000000, 68.790245
2519.000000, 68.861336
2520.000000, 68.917297
2521.000000, 69.072891
2522.000000, 69.201462
2523.000000, 69.236549
2524.000000, 69.364571
2525.000000, 69.536331
2526.000000, 69.641365
2527.000000, 69.732651
2528.000000, 69.811287
2529.000000, 69.985046
2530.000000, 70.174248
2531.000000, 70.186630
2532.000000, 70.373672
2533.000000, 70.410934
2534.000000, 70.539703
2535.000000, 70.603004
2536.000000, 70.753227
2537.000000, 70.718437
2538.000000, 70.771759
2539.000000, 70.845245
2540.000000, 70.968231
2541.000000, 70.933846
2542.000000, 71.013550
2543.000000, 71.009895
2544.000000, 71.078568
2545.000000, 71.026527
2546.000000, 71.174446
2547.000000, 71.087524
2548.000000, 71.100838
2549.000000, 71.157951
2550.000000, 71.140259
2551.000000, 71.073891
2552.000000, 71.118484
2553.000000, 71.209648
2554.000000, 71.227371
2555.000000, 71.172600
2556.000000, 71.191666
2557.000000, 71.260941
2558.000000, 71.218086
2559.000000, 71.322006
2560.000000, 71.283112
2561.000000, 71.252998
2562.000000, 71.364220
2563.000000, 71.318466
2564.000000, 71.309593
2565.000000, 71.306999
2566.000000, 71.402214
2567.000000, 71.446083
2568.000000, 71.538666
2569.000000, 71.488266
2570.000000, 71.508270
2571.000000, 71.491661
2572.000000, 71.522644
2573.000000, 71.533196
2574.000000, 71.401718
2575.000000, 71.434227
2576.000000, 71.557777
2577.000000, 71.530754
2578.000000, 71.488464
2579.000000, 71.516624
2580.000000, 71.667435
2581.000000, 71.669197
2582.000000, 71.734825
2583.000000, 71.757057
2584.000000, 71.847221
2585.000000, 72.039879
2586.000000, 72.082428
2587.000000, 72.244751
2588.000000, 72.334145
2589.000000, 72.499405
2590.000000, 72.539833
2591.000000, 72.701263
2592.000000, 72.703445
2593.000000, 72.737801
2594.000000, 72.849907
2595.000000, 72.882637
2596.000000, 72.869652
2597.000000, 72.939636
2598.000000, 73.116150
2599.000000, 73.107765
2600.000000, 73.125443
