# Wavelength  (nm), Transmission (%)
200.000000, 0.005768
201.000000, 0.005643
202.000000, 0.005489
203.000000, 0.005383
204.000000, 0.005248
205.000000, 0.005088
206.000000, 0.004942
207.000000, 0.004837
208.000000, 0.004668
209.000000, 0.004550
210.000000, 0.004435
211.000000, 0.004316
212.000000, 0.004187
213.000000, 0.004115
214.000000, 0.003985
215.000000, 0.003933
216.000000, 0.003848
217.000000, 0.003810
218.000000, 0.003825
219.000000, 0.003719
220.000000, 0.003717
221.000000, 0.003715
222.000000, 0.003684
223.000000, 0.003698
224.000000, 0.003689
225.000000, 0.003689
226.000000, 0.003715
227.000000, 0.003680
228.000000, 0.003701
229.000000, 0.003692
230.000000, 0.003686
231.000000, 0.003665
232.000000, 0.003653
233.000000, 0.003618
234.000000, 0.003603
235.000000, 0.003584
236.000000, 0.003579
237.000000, 0.003512
238.000000, 0.003508
239.000000, 0.003445
240.000000, 0.003409
241.000000, 0.003381
242.000000, 0.003386
243.000000, 0.003334
244.000000, 0.003338
245.000000, 0.003298
246.000000, 0.003284
247.000000, 0.003254
248.000000, 0.003240
249.000000, 0.003232
250.000000, 0.003227
251.000000, 0.003178
252.000000, 0.003177
253.000000, 0.003159
254.000000, 0.003103
255.000000, 0.003111
256.000000, 0.003116
257.000000, 0.003078
258.000000, 0.003076
259.000000, 0.003058
260.000000, 0.003046
261.000000, 0.002990
262.000000, 0.003000
263.000000, 0.002931
264.000000, 0.002942
265.000000, 0.002879
266.000000, 0.002892
267.000000, 0.002846
268.000000, 0.002861
269.000000, 0.002803
270.000000, 0.002832
271.000000, 0.002783
272.000000, 0.002754
273.000000, 0.002756
274.000000, 0.002720
275.000000, 0.002692
276.000000, 0.002670
277.000000, 0.002674
278.000000, 0.002623
279.000000, 0.002613
280.000000, 0.002621
281.000000, 0.002570
282.000000, 0.002525
283.000000, 0.002514
284.000000, 0.002452
285.000000, 0.002407
286.000000, 0.002401
287.000000, 0.002342
288.000000, 0.002301
289.000000, 0.002245
290.000000, 0.002173
291.000000, 0.002163
292.000000, 0.002065
293.000000, 0.002016
294.000000, 0.001903
295.000000, 0.001807
296.000000, 0.001762
297.000000, 0.001656
298.000000, 0.001582
299.000000, 0.001495
300.000000, 0.001394
301.000000, 0.001334
302.000000, 0.001233
303.000000, 0.001163
304.000000, 0.001079
305.000000, 0.001008
306.000000, 0.000909
307.000000, 0.000848
308.000000, 0.000798
309.000000, 0.000727
310.000000, 0.000657
311.000000, 0.000604
312.000000, 0.000545
313.000000, 0.000488
314.000000, 0.000466
315.000000, 0.000429
316.000000, 0.000390
317.000000, 0.000339
318.000000, 0.000291
319.000000, 0.000286
320.000000, 0.000273
321.000000, 0.000220
322.000000, 0.000200
323.000000, 0.000204
324.000000, 0.000194
325.000000, 0.000156
326.000000, 0.000151
327.000000, 0.000151
328.000000, 0.000144
329.000000, 0.000107
330.000000, 0.000105
331.000000, 0.000110
332.000000, 0.000102
333.000000, 0.000086
334.000000, 0.000080
335.000000, 0.000074
336.000000, 0.000063
337.000000, 0.000066
338.000000, 0.000074
339.000000, 0.000063
340.000000, 0.000067
341.000000, 0.000053
342.000000, 0.000063
343.000000, 0.000061
344.000000, 0.000061
345.000000, 0.000052
346.000000, 0.000061
347.000000, 0.000045
348.000000, 0.000056
349.000000, -0.000084
350.000000, 0.000081
351.000000, 0.000093
352.000000, 0.000090
353.000000, 0.000077
354.000000, 0.000076
355.000000, 0.000058
356.000000, 0.000081
357.000000, 0.000104
358.000000, 0.000116
359.000000, 0.000221
360.000000, 0.000364
361.000000, 0.000743
362.000000, 0.001461
363.000000, 0.002852
364.000000, 0.005473
365.000000, 0.010055
366.000000, 0.017794
367.000000, 0.030684
368.000000, 0.051574
369.000000, 0.083403
370.000000, 0.129791
371.000000, 0.198523
372.000000, 0.291002
373.000000, 0.411401
374.000000, 0.573214
375.000000, 0.790983
376.000000, 1.048726
377.000000, 1.336915
378.000000, 1.723423
379.000000, 2.234936
380.000000, 2.726321
381.000000, 3.206815
382.000000, 3.979664
383.000000, 4.990963
384.000000, 5.695769
385.000000, 6.200475
386.000000, 7.418779
387.000000, 9.218191
388.000000, 10.098973
389.000000, 10.214823
390.000000, 11.649611
391.000000, 14.253843
392.000000, 15.083781
393.000000, 13.814029
394.000000, 14.281145
395.000000, 18.311855
396.000000, 21.830030
397.000000, 21.124918
398.000000, 19.878460
399.000000, 23.159405
400.000000, 28.044785
401.000000, 27.255445
402.000000, 22.242554
403.000000, 21.181620
404.000000, 27.578228
405.000000, 34.810291
406.000000, 34.370377
407.000000, 29.340025
408.000000, 29.735559
409.000000, 38.330208
410.000000, 46.042751
411.000000, 44.175091
412.000000, 38.443489
413.000000, 39.803894
414.000000, 47.981667
415.000000, 51.544880
416.000000, 45.137432
417.000000, 38.218689
418.000000, 40.760994
419.000000, 50.813580
420.000000, 55.879601
421.000000, 49.290436
422.000000, 40.348072
423.000000, 40.493958
424.000000, 49.694969
425.000000, 56.232937
426.000000, 50.695770
427.000000, 40.217606
428.000000, 36.424797
429.000000, 41.297668
430.000000, 48.665131
431.000000, 53.127945
432.000000, 55.461281
433.000000, 50.756271
434.000000, 32.869038
435.000000, 7.596334
436.000000, 3.604639
437.000000, 1.185482
438.000000, 0.534961
439.000000, 0.296521
440.000000, 0.188842
441.000000, 0.131143
442.000000, 0.094774
443.000000, 0.069654
444.000000, 0.051453
445.000000, 0.037936
446.000000, 0.027995
447.000000, 0.021135
448.000000, 0.016436
449.000000, 0.013613
450.000000, 0.011871
451.000000, 0.011289
452.000000, 0.011766
453.000000, 0.014020
454.000000, 0.020029
455.000000, 0.037016
456.000000, 0.072884
457.000000, 0.100888
458.000000, 0.083878
459.000000, 0.043370
460.000000, 0.018639
461.000000, 0.010178
462.000000, 0.006960
463.000000, 0.005540
464.000000, 0.004967
465.000000, 0.004886
466.000000, 0.005266
467.000000, 0.006145
468.000000, 0.007816
469.000000, 0.010876
470.000000, 0.016476
471.000000, 0.028075
472.000000, 0.054347
473.000000, 0.125670
474.000000, 0.378593
475.000000, 1.964105
476.000000, 11.719356
477.000000, 27.272152
478.000000, 31.168457
479.000000, 24.228794
480.000000, 26.170870
481.000000, 43.618263
482.000000, 59.288673
483.000000, 54.825871
484.000000, 38.405197
485.000000, 28.386038
486.000000, 28.023376
487.000000, 35.596046
488.000000, 50.530052
489.000000, 67.193031
490.000000, 74.324928
491.000000, 68.897392
492.000000, 59.633492
493.000000, 54.479862
494.000000, 54.760139
495.000000, 58.766907
496.000000, 63.943924
497.000000, 67.887482
498.000000, 69.479515
499.000000, 69.560966
500.000000, 69.652870
501.000000, 70.745247
502.000000, 72.705467
503.000000, 74.674545
504.000000, 75.908081
505.000000, 76.481117
506.000000, 77.109428
507.000000, 78.544937
508.000000, 81.048813
509.000000, 83.866600
510.000000, 85.462715
511.000000, 84.581764
512.000000, 81.342232
513.000000, 76.965378
514.000000, 73.351151
515.000000, 71.754730
516.000000, 72.687202
517.000000, 75.792343
518.000000, 80.147942
519.000000, 83.990219
520.000000, 85.690346
521.000000, 84.646469
522.000000, 81.646942
523.000000, 78.372375
524.000000, 76.293694
525.000000, 76.148018
526.000000, 77.930519
527.000000, 80.930870
528.000000, 83.931770
529.000000, 85.732407
530.000000, 85.501068
531.000000, 83.466011
532.000000, 80.739326
533.000000, 78.400307
534.000000, 77.370232
535.000000, 77.854599
536.000000, 79.607323
537.000000, 81.892571
538.000000, 83.641258
539.000000, 84.087334
540.000000, 82.999924
541.000000, 80.810875
542.000000, 78.292122
543.000000, 76.392731
544.000000, 75.581741
545.000000, 76.001717
546.000000, 77.660210
547.000000, 79.886055
548.000000, 82.083717
549.000000, 83.525505
550.000000, 83.858139
551.000000, 83.067581
552.000000, 81.602409
553.000000, 80.140793
554.000000, 79.232185
555.000000, 79.159348
556.000000, 79.904602
557.000000, 81.244514
558.000000, 82.790283
559.000000, 83.947456
560.000000, 84.397644
561.000000, 83.914040
562.000000, 82.795547
563.000000, 81.301727
564.000000, 79.928139
565.000000, 78.946960
566.000000, 78.632721
567.000000, 78.999649
568.000000, 79.957626
569.000000, 81.182762
570.000000, 82.386749
571.000000, 83.423630
572.000000, 84.018173
573.000000, 84.228935
574.000000, 84.064018
575.000000, 83.768875
576.000000, 83.546944
577.000000, 83.508965
578.000000, 83.671066
579.000000, 84.038063
580.000000, 84.510918
581.000000, 84.913330
582.000000, 85.138596
583.000000, 85.238968
584.000000, 85.119682
585.000000, 84.900719
586.000000, 84.706047
587.000000, 84.562889
588.000000, 84.589836
589.000000, 84.849373
590.000000, 85.194206
591.000000, 85.656647
592.000000, 86.056854
593.000000, 86.441292
594.000000, 86.674095
595.000000, 86.750397
596.000000, 86.763725
597.000000, 86.718246
598.000000, 86.708649
599.000000, 86.717468
600.000000, 86.829727
601.000000, 86.954727
602.000000, 87.126137
603.000000, 87.212814
604.000000, 87.227409
605.000000, 87.111107
606.000000, 86.915787
607.000000, 86.606483
608.000000, 86.344139
609.000000, 86.122940
610.000000, 86.023758
611.000000, 86.119812
612.000000, 86.392838
613.000000, 86.770264
614.000000, 87.269150
615.000000, 87.729073
616.000000, 88.129654
617.000000, 88.366310
618.000000, 88.478867
619.000000, 88.443886
620.000000, 88.249313
621.000000, 88.012199
622.000000, 87.818375
623.000000, 87.665871
624.000000, 87.672783
625.000000, 87.804077
626.000000, 87.974243
627.000000, 88.241035
628.000000, 88.451920
629.000000, 88.666977
630.000000, 88.720016
631.000000, 88.698112
632.000000, 88.534088
633.000000, 88.326965
634.000000, 88.101486
635.000000, 87.880333
636.000000, 87.729446
637.000000, 87.687057
638.000000, 87.737785
639.000000, 87.881783
640.000000, 88.077805
641.000000, 88.336540
642.000000, 88.546585
643.000000, 88.690147
644.000000, 88.760826
645.000000, 88.742058
646.000000, 88.650879
647.000000, 88.520569
648.000000, 88.378456
649.000000, 88.272896
650.000000, 88.207489
651.000000, 88.255096
652.000000, 88.327759
653.000000, 88.442055
654.000000, 88.561859
655.000000, 88.690414
656.000000, 88.773521
657.000000, 88.748222
658.000000, 88.746872
659.000000, 88.648636
660.000000, 88.528976
661.000000, 88.373116
662.000000, 88.284622
663.000000, 88.189232
664.000000, 88.214577
665.000000, 88.280556
666.000000, 88.398712
667.000000, 88.492348
668.000000, 88.630196
669.000000, 88.730423
670.000000, 88.733315
671.000000, 88.699921
672.000000, 88.632385
673.000000, 88.489807
674.000000, 88.326920
675.000000, 88.168938
676.000000, 88.070122
677.000000, 87.995041
678.000000, 88.001930
679.000000, 88.040825
680.000000, 88.173416
681.000000, 88.272957
682.000000, 88.439095
683.000000, 88.551888
684.000000, 88.634956
685.000000, 88.656326
686.000000, 88.727097
687.000000, 88.707390
688.000000, 88.626778
689.000000, 88.607643
690.000000, 88.582481
691.000000, 88.573166
692.000000, 88.582108
693.000000, 88.623863
694.000000, 88.593117
695.000000, 88.596672
696.000000, 88.547043
697.000000, 88.416580
698.000000, 88.223595
699.000000, 87.967049
700.000000, 87.724495
701.000000, 87.426170
702.000000, 87.139061
703.000000, 86.945900
704.000000, 86.787971
705.000000, 86.789047
706.000000, 86.868271
707.000000, 87.058426
708.000000, 87.294098
709.000000, 87.514565
710.000000, 87.803680
711.000000, 87.994827
712.000000, 88.151489
713.000000, 88.252899
714.000000, 88.200256
715.000000, 88.177711
716.000000, 88.066193
717.000000, 88.028809
718.000000, 87.979858
719.000000, 87.977753
720.000000, 87.975296
721.000000, 88.044304
722.000000, 88.060600
723.000000, 88.057503
724.000000, 87.955948
725.000000, 87.862358
726.000000, 87.659088
727.000000, 87.442223
728.000000, 87.231079
729.000000, 87.089684
730.000000, 87.005325
731.000000, 86.958290
732.000000, 86.997681
733.000000, 87.055710
734.000000, 87.173531
735.000000, 87.186615
736.000000, 87.273834
737.000000, 87.137505
738.000000, 87.046295
739.000000, 86.749527
740.000000, 86.323151
741.000000, 85.645500
742.000000, 84.690781
743.000000, 83.593163
744.000000, 82.719994
745.000000, 82.643059
746.000000, 82.884544
747.000000, 80.603172
748.000000, 69.921631
749.000000, 49.682705
750.000000, 27.742872
751.000000, 11.234282
752.000000, 5.389948
753.000000, 2.341818
754.000000, 1.067795
755.000000, 0.515721
756.000000, 0.261737
757.000000, 0.138957
758.000000, 0.077194
759.000000, 0.043922
760.000000, 0.025821
761.000000, 0.015645
762.000000, 0.009714
763.000000, 0.006318
764.000000, 0.004106
765.000000, 0.002828
766.000000, 0.002022
767.000000, 0.001441
768.000000, 0.001137
769.000000, 0.000869
770.000000, 0.000694
771.000000, 0.000569
772.000000, 0.000493
773.000000, 0.000422
774.000000, 0.000363
775.000000, 0.000320
776.000000, 0.000284
777.000000, 0.000255
778.000000, 0.000258
779.000000, 0.000228
780.000000, 0.000200
781.000000, 0.000199
782.000000, 0.000180
783.000000, 0.000182
784.000000, 0.000157
785.000000, 0.000169
786.000000, 0.000146
787.000000, 0.000137
788.000000, 0.000136
789.000000, 0.000130
790.000000, 0.000130
791.000000, 0.000118
792.000000, 0.000133
793.000000, 0.000103
794.000000, 0.000097
795.000000, 0.000104
796.000000, 0.000094
797.000000, 0.000096
798.000000, 0.000098
799.000000, 0.000084
800.000000, 0.000173
801.000000, -0.000022
802.000000, -0.000334
803.000000, -0.000388
804.000000, -0.000249
805.000000, 0.000110
806.000000, 0.000042
807.000000, -0.000060
808.000000, -0.000194
809.000000, -0.000152
810.000000, 0.000108
811.000000, -0.000083
812.000000, -0.000264
813.000000, -0.000043
814.000000, -0.000006
815.000000, -0.000065
816.000000, -0.000030
817.000000, -0.000014
818.000000, 0.000348
819.000000, 0.000099
820.000000, 0.000105
821.000000, -0.000089
822.000000, -0.000082
823.000000, 0.000036
824.000000, 0.000014
825.000000, 0.000233
826.000000, 0.000203
827.000000, 0.000310
828.000000, 0.000075
829.000000, 0.000333
830.000000, 0.000121
831.000000, 0.000017
832.000000, 0.000260
833.000000, 0.000089
834.000000, 0.000039
835.000000, 0.000262
836.000000, 0.000406
837.000000, 0.000194
838.000000, 0.000024
839.000000, 0.000035
840.000000, 0.000205
841.000000, 0.000197
842.000000, -0.000024
843.000000, 0.000280
844.000000, -0.000008
845.000000, -0.000040
846.000000, 0.000069
847.000000, 0.000119
848.000000, 0.000150
849.000000, -0.000028
850.000000, 0.000213
851.000000, 0.000117
852.000000, 0.000077
853.000000, -0.000058
854.000000, 0.000216
855.000000, 0.000057
856.000000, 0.000268
857.000000, 0.000184
858.000000, 0.000010
859.000000, 0.000160
860.000000, 0.000082
861.000000, 0.000137
862.000000, 0.000110
863.000000, 0.000097
864.000000, 0.000118
865.000000, 0.000256
866.000000, 0.000201
867.000000, 0.000255
868.000000, 0.000245
869.000000, 0.000435
870.000000, 0.000208
871.000000, 0.000244
872.000000, 0.000296
873.000000, 0.000191
874.000000, 0.000269
875.000000, 0.000326
876.000000, 0.000234
877.000000, 0.000228
878.000000, 0.000314
879.000000, 0.000230
880.000000, 0.000220
881.000000, 0.000257
882.000000, 0.000314
883.000000, 0.000373
884.000000, 0.000275
885.000000, 0.000279
886.000000, 0.000262
887.000000, 0.000314
888.000000, 0.000223
889.000000, 0.000244
890.000000, 0.000316
891.000000, 0.000330
892.000000, 0.000165
893.000000, 0.000206
894.000000, 0.000264
895.000000, 0.000271
896.000000, 0.000290
897.000000, 0.000255
898.000000, 0.000307
899.000000, 0.000232
900.000000, 0.000337
901.000000, 0.000266
902.000000, 0.000305
903.000000, 0.000221
904.000000, 0.000276
905.000000, 0.000251
906.000000, 0.000235
907.000000, 0.000245
908.000000, 0.000243
909.000000, 0.000261
910.000000, 0.000229
911.000000, 0.000317
912.000000, 0.000220
913.000000, 0.000204
914.000000, 0.000266
915.000000, 0.000239
916.000000, 0.000229
917.000000, 0.000250
918.000000, 0.000234
919.000000, 0.000240
920.000000, 0.000357
921.000000, 0.000262
922.000000, 0.000301
923.000000, 0.000251
924.000000, 0.000229
925.000000, 0.000279
926.000000, 0.000165
927.000000, 0.000225
928.000000, 0.000263
929.000000, 0.000260
930.000000, 0.000222
931.000000, 0.000297
932.000000, 0.000271
933.000000, 0.000228
934.000000, 0.000194
935.000000, 0.000239
936.000000, 0.000221
937.000000, 0.000162
938.000000, 0.000257
939.000000, 0.000302
940.000000, 0.000260
941.000000, 0.000314
942.000000, 0.000320
943.000000, 0.000257
944.000000, 0.000249
945.000000, 0.000224
946.000000, 0.000194
947.000000, 0.000230
948.000000, 0.000167
949.000000, 0.000175
950.000000, 0.000217
951.000000, 0.000250
952.000000, 0.000247
953.000000, 0.000211
954.000000, 0.000183
955.000000, 0.000253
956.000000, 0.000366
957.000000, 0.000291
958.000000, 0.000230
959.000000, 0.000255
960.000000, 0.000291
961.000000, 0.000286
962.000000, 0.000240
963.000000, 0.000311
964.000000, 0.000210
965.000000, 0.000363
966.000000, 0.000271
967.000000, 0.000293
968.000000, 0.000305
969.000000, 0.000308
970.000000, 0.000227
971.000000, 0.000309
972.000000, 0.000291
973.000000, 0.000258
974.000000, 0.000282
975.000000, 0.000192
976.000000, 0.000275
977.000000, 0.000240
978.000000, 0.000280
979.000000, 0.000289
980.000000, 0.000311
981.000000, 0.000337
982.000000, 0.000334
983.000000, 0.000312
984.000000, 0.000217
985.000000, 0.000150
986.000000, 0.000328
987.000000, 0.000234
988.000000, 0.000186
989.000000, 0.000308
990.000000, 0.000297
991.000000, 0.000185
992.000000, 0.000276
993.000000, 0.000331
994.000000, 0.000247
995.000000, 0.000249
996.000000, 0.000238
997.000000, 0.000219
998.000000, 0.000197
999.000000, 0.000220
1000.000000, 0.000338
1001.000000, 0.000358
1002.000000, 0.000275
1003.000000, 0.000287
1004.000000, 0.000254
1005.000000, 0.000257
1006.000000, 0.000296
1007.000000, 0.000270
1008.000000, 0.000259
1009.000000, 0.000276
1010.000000, 0.000228
1011.000000, 0.000151
1012.000000, 0.000363
1013.000000, 0.000212
1014.000000, 0.000256
1015.000000, 0.000331
1016.000000, 0.000241
1017.000000, 0.000265
1018.000000, 0.000249
1019.000000, 0.000222
1020.000000, 0.000322
1021.000000, 0.000225
1022.000000, 0.000326
1023.000000, 0.000266
1024.000000, 0.000339
1025.000000, 0.000361
1026.000000, 0.000288
1027.000000, 0.000338
1028.000000, 0.000219
1029.000000, 0.000290
1030.000000, 0.000303
1031.000000, 0.000319
1032.000000, 0.000341
1033.000000, 0.000426
1034.000000, 0.000451
1035.000000, 0.000519
1036.000000, 0.000672
1037.000000, 0.000833
1038.000000, 0.001021
1039.000000, 0.001388
1040.000000, 0.001944
1041.000000, 0.002861
1042.000000, 0.005155
1043.000000, 0.013041
1044.000000, 0.043019
1045.000000, 0.149733
1046.000000, 0.445197
1047.000000, 0.806961
1048.000000, 1.160706
1049.000000, 1.527699
1050.000000, 1.888074
1051.000000, 2.234454
1052.000000, 2.535002
1053.000000, 2.650491
1054.000000, 2.405748
1055.000000, 2.069514
1056.000000, 1.718019
1057.000000, 1.375237
1058.000000, 1.021049
1059.000000, 0.674482
1060.000000, 0.392513
1061.000000, 0.261547
1062.000000, 0.293262
1063.000000, 0.385339
1064.000000, 0.580680
1065.000000, 1.058923
1066.000000, 2.053829
1067.000000, 3.020796
1068.000000, 4.079880
1069.000000, 5.611376
1070.000000, 8.179939
1071.000000, 14.011833
1072.000000, 26.346245
1073.000000, 37.684231
1074.000000, 32.442562
1075.000000, 21.492290
1076.000000, 14.376065
1077.000000, 9.877227
1078.000000, 7.039692
1079.000000, 5.645157
1080.000000, 4.100955
1081.000000, 2.933001
1082.000000, 2.248339
1083.000000, 2.035534
1084.000000, 2.001775
1085.000000, 2.093910
1086.000000, 2.290908
1087.000000, 2.641303
1088.000000, 3.172880
1089.000000, 3.731315
1090.000000, 4.461568
1091.000000, 5.650766
1092.000000, 7.358652
1093.000000, 9.944819
1094.000000, 14.286510
1095.000000, 21.212767
1096.000000, 33.877991
1097.000000, 52.494038
1098.000000, 68.927376
1099.000000, 66.344055
1100.000000, 49.426807
1101.000000, 33.651127
1102.000000, 23.294302
1103.000000, 16.544025
1104.000000, 12.215309
1105.000000, 9.684428
1106.000000, 7.957295
1107.000000, 6.826538
1108.000000, 6.049678
1109.000000, 5.516383
1110.000000, 5.161585
1111.000000, 4.959006
1112.000000, 4.873697
1113.000000, 4.888945
1114.000000, 4.999584
1115.000000, 5.207443
1116.000000, 5.537157
1117.000000, 5.994244
1118.000000, 6.594320
1119.000000, 7.379261
1120.000000, 8.451181
1121.000000, 9.775545
1122.000000, 11.689031
1123.000000, 14.328165
1124.000000, 17.747274
1125.000000, 22.694889
1126.000000, 29.655287
1127.000000, 39.200817
1128.000000, 51.868134
1129.000000, 66.358803
1130.000000, 77.046791
1131.000000, 78.757324
1132.000000, 70.550446
1133.000000, 58.098019
1134.000000, 45.840855
1135.000000, 35.712486
1136.000000, 28.299627
1137.000000, 23.028364
1138.000000, 19.264414
1139.000000, 16.427559
1140.000000, 14.411055
1141.000000, 12.809913
1142.000000, 11.576568
1143.000000, 10.722139
1144.000000, 10.050031
1145.000000, 9.571902
1146.000000, 9.254342
1147.000000, 9.062415
1148.000000, 8.974051
1149.000000, 9.009741
1150.000000, 9.135817
1151.000000, 9.381830
1152.000000, 9.725975
1153.000000, 10.206549
1154.000000, 10.836773
1155.000000, 11.659713
1156.000000, 12.621231
1157.000000, 13.829428
1158.000000, 15.357118
1159.000000, 17.136660
1160.000000, 19.525389
1161.000000, 22.495348
1162.000000, 26.082935
1163.000000, 30.674711
1164.000000, 36.227833
1165.000000, 42.972530
1166.000000, 51.344288
1167.000000, 61.060619
1168.000000, 70.587593
1169.000000, 78.536865
1170.000000, 83.160034
1171.000000, 83.036598
1172.000000, 78.652115
1173.000000, 71.086876
1174.000000, 62.319641
1175.000000, 53.977554
1176.000000, 46.593781
1177.000000, 40.317379
1178.000000, 35.391369
1179.000000, 31.175650
1180.000000, 27.784931
1181.000000, 25.146311
1182.000000, 22.982342
1183.000000, 21.250336
1184.000000, 19.866056
1185.000000, 18.781059
1186.000000, 17.899994
1187.000000, 17.224342
1188.000000, 16.765787
1189.000000, 16.426861
1190.000000, 16.239647
1191.000000, 16.196676
1192.000000, 16.295916
1193.000000, 16.514219
1194.000000, 16.888046
1195.000000, 17.387997
1196.000000, 18.064388
1197.000000, 18.834713
1198.000000, 19.854832
1199.000000, 21.148411
1200.000000, 22.601151
1201.000000, 24.371794
1202.000000, 26.387905
1203.000000, 28.845921
1204.000000, 31.612232
1205.000000, 35.032864
1206.000000, 39.066490
1207.000000, 43.532333
1208.000000, 48.790909
1209.000000, 54.524525
1210.000000, 60.695118
1211.000000, 67.205841
1212.000000, 73.618530
1213.000000, 79.249313
1214.000000, 83.598961
1215.000000, 85.901794
1216.000000, 86.073746
1217.000000, 84.192833
1218.000000, 80.377174
1219.000000, 75.375458
1220.000000, 69.902374
1221.000000, 64.295891
1222.000000, 58.736565
1223.000000, 53.960598
1224.000000, 49.277626
1225.000000, 45.079624
1226.000000, 41.668339
1227.000000, 38.615356
1228.000000, 36.029278
1229.000000, 33.792286
1230.000000, 31.878086
1231.000000, 30.197483
1232.000000, 28.848129
1233.000000, 27.778084
1234.000000, 26.874313
1235.000000, 26.166954
1236.000000, 25.651588
1237.000000, 25.235420
1238.000000, 24.998755
1239.000000, 24.954172
1240.000000, 25.003868
1241.000000, 25.181070
1242.000000, 25.482391
1243.000000, 25.949823
1244.000000, 26.590410
1245.000000, 27.307787
1246.000000, 28.280622
1247.000000, 29.342819
1248.000000, 30.622980
1249.000000, 32.094418
1250.000000, 33.843582
1251.000000, 35.762745
1252.000000, 37.972084
1253.000000, 40.475410
1254.000000, 43.277245
1255.000000, 46.467937
1256.000000, 50.042107
1257.000000, 54.019207
1258.000000, 58.148903
1259.000000, 62.500374
1260.000000, 67.188301
1261.000000, 71.723228
1262.000000, 76.300224
1263.000000, 80.695709
1264.000000, 84.149712
1265.000000, 86.805046
1266.000000, 88.380554
1267.000000, 88.935310
1268.000000, 88.255325
1269.000000, 86.627464
1270.000000, 83.967384
1271.000000, 80.714470
1272.000000, 76.991348
1273.000000, 73.082489
1274.000000, 69.151077
1275.000000, 65.128510
1276.000000, 61.363464
1277.000000, 57.904835
1278.000000, 54.647255
1279.000000, 51.531525
1280.000000, 49.006153
1281.000000, 46.529503
1282.000000, 44.390461
1283.000000, 42.590610
1284.000000, 40.969883
1285.000000, 39.564671
1286.000000, 38.332687
1287.000000, 37.317078
1288.000000, 36.452923
1289.000000, 35.771416
1290.000000, 35.207645
1291.000000, 34.784908
1292.000000, 34.554581
1293.000000, 34.431099
1294.000000, 34.421352
1295.000000, 34.528656
1296.000000, 34.737549
1297.000000, 35.071629
1298.000000, 35.610207
1299.000000, 36.216652
1300.000000, 36.961555
1301.000000, 37.901703
1302.000000, 38.930897
1303.000000, 40.132736
1304.000000, 41.505222
1305.000000, 43.040615
1306.000000, 44.722252
1307.000000, 46.623177
1308.000000, 48.760120
1309.000000, 51.031918
1310.000000, 53.445435
1311.000000, 56.139713
1312.000000, 58.908852
1313.000000, 61.885994
1314.000000, 65.118179
1315.000000, 68.412903
1316.000000, 71.628639
1317.000000, 74.935425
1318.000000, 78.141655
1319.000000, 81.145111
1320.000000, 83.842819
1321.000000, 86.149124
1322.000000, 88.036949
1323.000000, 89.254227
1324.000000, 89.974609
1325.000000, 90.207848
1326.000000, 89.444290
1327.000000, 88.372742
1328.000000, 86.794655
1329.000000, 84.837837
1330.000000, 82.553757
1331.000000, 79.977783
1332.000000, 77.413620
1333.000000, 74.812408
1334.000000, 71.960533
1335.000000, 69.382683
1336.000000, 66.685265
1337.000000, 64.164642
1338.000000, 61.710022
1339.000000, 59.341812
1340.000000, 57.282536
1341.000000, 55.257774
1342.000000, 53.489773
1343.000000, 51.800323
1344.000000, 50.382919
1345.000000, 49.024746
1346.000000, 47.832817
1347.000000, 46.796623
1348.000000, 45.885406
1349.000000, 45.075672
1350.000000, 44.410740
1351.000000, 43.845654
1352.000000, 43.409061
1353.000000, 43.108078
1354.000000, 42.912281
1355.000000, 42.832947
1356.000000, 42.843975
1357.000000, 42.923229
1358.000000, 43.190250
1359.000000, 43.525845
1360.000000, 43.968479
1361.000000, 44.530449
1362.000000, 45.208542
1363.000000, 45.952305
1364.000000, 46.828426
1365.000000, 47.847034
1366.000000, 48.977173
1367.000000, 50.149872
1368.000000, 51.451229
1369.000000, 52.994061
1370.000000, 54.475986
1371.000000, 56.291027
1372.000000, 58.065617
1373.000000, 59.999542
1374.000000, 62.049068
1375.000000, 64.127617
1376.000000, 66.328339
1377.000000, 68.636528
1378.000000, 70.903473
1379.000000, 73.225349
1380.000000, 75.554817
1381.000000, 77.991776
1382.000000, 79.985168
1383.000000, 82.215828
1384.000000, 84.135918
1385.000000, 85.870689
1386.000000, 87.409279
1387.000000, 88.631920
1388.000000, 89.401558
1389.000000, 90.025780
1390.000000, 90.204864
1391.000000, 89.999786
1392.000000, 89.368454
1393.000000, 88.663544
1394.000000, 87.582268
1395.000000, 86.223534
1396.000000, 84.658737
1397.000000, 82.827438
1398.000000, 81.073608
1399.000000, 79.078323
1400.000000, 77.014992
1401.000000, 75.104095
1402.000000, 73.062691
1403.000000, 71.061409
1404.000000, 69.113838
1405.000000, 67.180405
1406.000000, 65.328766
1407.000000, 63.653217
1408.000000, 62.003922
1409.000000, 60.376350
1410.000000, 58.801586
1411.000000, 57.526409
1412.000000, 56.263428
1413.000000, 55.105953
1414.000000, 54.052933
1415.000000, 53.025425
1416.000000, 52.172844
1417.000000, 51.418179
1418.000000, 50.767292
1419.000000, 50.161713
1420.000000, 49.636456
1421.000000, 49.180580
1422.000000, 48.863327
1423.000000, 48.593651
1424.000000, 48.432915
1425.000000, 48.333855
1426.000000, 48.396366
1427.000000, 48.486946
1428.000000, 48.678719
1429.000000, 48.965851
1430.000000, 49.324299
1431.000000, 49.793877
1432.000000, 50.378944
1433.000000, 50.960999
1434.000000, 51.632851
1435.000000, 52.406151
1436.000000, 53.337914
1437.000000, 54.245949
1438.000000, 55.336052
1439.000000, 56.402756
1440.000000, 57.548096
1441.000000, 58.883812
1442.000000, 60.264629
1443.000000, 61.526638
1444.000000, 63.065655
1445.000000, 64.543091
1446.000000, 66.111679
1447.000000, 67.756340
1448.000000, 69.454659
1449.000000, 71.136215
1450.000000, 72.936890
1451.000000, 74.660492
1452.000000, 76.333916
1453.000000, 77.936897
1454.000000, 79.642067
1455.000000, 81.189774
1456.000000, 82.663208
1457.000000, 84.001999
1458.000000, 85.172295
1459.000000, 86.133804
1460.000000, 87.045364
1461.000000, 87.804993
1462.000000, 88.391785
1463.000000, 88.809013
1464.000000, 89.097557
1465.000000, 88.876938
1466.000000, 88.581207
1467.000000, 88.106483
1468.000000, 87.603035
1469.000000, 86.785858
1470.000000, 86.005035
1471.000000, 85.006592
1472.000000, 83.848068
1473.000000, 82.589668
1474.000000, 81.323280
1475.000000, 79.976761
1476.000000, 78.680542
1477.000000, 77.288857
1478.000000, 75.953583
1479.000000, 74.556313
1480.000000, 73.182205
1481.000000, 71.778748
1482.000000, 70.643463
1483.000000, 69.250420
1484.000000, 68.109253
1485.000000, 66.917870
1486.000000, 65.799721
1487.000000, 64.699158
1488.000000, 63.756432
1489.000000, 62.872326
1490.000000, 61.989449
1491.000000, 61.200012
1492.000000, 60.444653
1493.000000, 59.713627
1494.000000, 59.226028
1495.000000, 58.657116
1496.000000, 58.126987
1497.000000, 57.707439
1498.000000, 57.408649
1499.000000, 57.146286
1500.000000, 56.959194
1501.000000, 56.771248
1502.000000, 56.721260
1503.000000, 56.610500
1504.000000, 56.655167
1505.000000, 56.737251
1506.000000, 56.865005
1507.000000, 57.029091
1508.000000, 57.211590
1509.000000, 57.503880
1510.000000, 57.871593
1511.000000, 58.313049
1512.000000, 58.741467
1513.000000, 59.238304
1514.000000, 59.848179
1515.000000, 60.448719
1516.000000, 61.082691
1517.000000, 61.739670
1518.000000, 62.563316
1519.000000, 63.401188
1520.000000, 64.217888
1521.000000, 65.179665
1522.000000, 66.038910
1523.000000, 67.016930
1524.000000, 68.116402
1525.000000, 69.156143
1526.000000, 70.390755
1527.000000, 71.545120
1528.000000, 72.558655
1529.000000, 73.769150
1530.000000, 75.014534
1531.000000, 76.278160
1532.000000, 77.391174
1533.000000, 78.455368
1534.000000, 79.641418
1535.000000, 80.873619
1536.000000, 81.833389
1537.000000, 82.890854
1538.000000, 83.903900
1539.000000, 84.811546
1540.000000, 85.575104
1541.000000, 86.398796
1542.000000, 87.169716
1543.000000, 87.745720
1544.000000, 88.170799
1545.000000, 88.599800
1546.000000, 88.869186
1547.000000, 89.141541
1548.000000, 89.360756
1549.000000, 89.364143
1550.000000, 89.274040
1551.000000, 88.958237
1552.000000, 88.701073
1553.000000, 88.301735
1554.000000, 87.807152
1555.000000, 87.214806
1556.000000, 86.549690
1557.000000, 85.809113
1558.000000, 84.982872
1559.000000, 84.196152
1560.000000, 83.340340
1561.000000, 82.516655
1562.000000, 81.514648
1563.000000, 80.334076
1564.000000, 79.435593
1565.000000, 78.528870
1566.000000, 77.541817
1567.000000, 76.558914
1568.000000, 75.653435
1569.000000, 74.627007
1570.000000, 73.761955
1571.000000, 72.834816
1572.000000, 71.955437
1573.000000, 71.136902
1574.000000, 70.340881
1575.000000, 69.548660
1576.000000, 68.794533
1577.000000, 68.160370
1578.000000, 67.544823
1579.000000, 66.897636
1580.000000, 66.338814
1581.000000, 65.854782
1582.000000, 65.250626
1583.000000, 64.842072
1584.000000, 64.396072
1585.000000, 64.120186
1586.000000, 63.765381
1587.000000, 63.469322
1588.000000, 63.304771
1589.000000, 63.156235
1590.000000, 62.951042
1591.000000, 62.937248
1592.000000, 62.907642
1593.000000, 62.841244
1594.000000, 62.890400
1595.000000, 62.962109
1596.000000, 62.996284
1597.000000, 63.230831
1598.000000, 63.396751
1599.000000, 63.625206
1600.000000, 63.932728
1601.000000, 64.246170
1602.000000, 64.578232
1603.000000, 64.983978
1604.000000, 65.307106
1605.000000, 65.801697
1606.000000, 66.322983
1607.000000, 66.825836
1608.000000, 67.378296
1609.000000, 68.057259
1610.000000, 68.737587
1611.000000, 69.330238
1612.000000, 70.010941
1613.000000, 70.770157
1614.000000, 71.488274
1615.000000, 72.182655
1616.000000, 73.047722
1617.000000, 73.829689
1618.000000, 74.621040
1619.000000, 75.399277
1620.000000, 76.265900
1621.000000, 77.224861
1622.000000, 77.943871
1623.000000, 78.820541
1624.000000, 79.770134
1625.000000, 80.621490
1626.000000, 81.391266
1627.000000, 82.172234
1628.000000, 83.021843
1629.000000, 83.715530
1630.000000, 84.394882
1631.000000, 85.035500
1632.000000, 85.667191
1633.000000, 86.294449
1634.000000, 86.871597
1635.000000, 87.279388
1636.000000, 87.733116
1637.000000, 88.127411
1638.000000, 88.422302
1639.000000, 88.730248
1640.000000, 88.768944
1641.000000, 88.850204
1642.000000, 88.877991
1643.000000, 88.793640
1644.000000, 88.703781
1645.000000, 88.447639
1646.000000, 88.177773
1647.000000, 87.865402
1648.000000, 87.658875
1649.000000, 87.405495
1650.000000, 86.917458
1651.000000, 86.501846
1652.000000, 86.081474
1653.000000, 85.544388
1654.000000, 85.130119
1655.000000, 84.429100
1656.000000, 83.652153
1657.000000, 83.006271
1658.000000, 82.083382
1659.000000, 81.169983
1660.000000, 80.270035
1661.000000, 79.393860
1662.000000, 78.307953
1663.000000, 77.194504
1664.000000, 76.141777
1665.000000, 75.041901
1666.000000, 73.959564
1667.000000, 73.002579
1668.000000, 72.116341
1669.000000, 71.292694
1670.000000, 70.728233
1671.000000, 70.154999
1672.000000, 69.755783
1673.000000, 69.467804
1674.000000, 69.185051
1675.000000, 68.869225
1676.000000, 68.601883
1677.000000, 68.306458
1678.000000, 68.077126
1679.000000, 67.886795
1680.000000, 67.456070
1681.000000, 67.095879
1682.000000, 66.636589
1683.000000, 66.116440
1684.000000, 65.663979
1685.000000, 65.205498
1686.000000, 64.863129
1687.000000, 64.522133
1688.000000, 64.211914
1689.000000, 64.008347
1690.000000, 63.900661
1691.000000, 63.886429
1692.000000, 63.879692
1693.000000, 63.900696
1694.000000, 63.936352
1695.000000, 63.841408
1696.000000, 63.886738
1697.000000, 63.809490
1698.000000, 63.792061
1699.000000, 63.937939
1700.000000, 64.045242
1701.000000, 64.340263
1702.000000, 64.715691
1703.000000, 65.108932
1704.000000, 65.526077
1705.000000, 65.907227
1706.000000, 66.354767
1707.000000, 66.860741
1708.000000, 67.427864
1709.000000, 67.759727
1710.000000, 68.288307
1711.000000, 68.688675
1712.000000, 69.262642
1713.000000, 69.734818
1714.000000, 70.098045
1715.000000, 70.513626
1716.000000, 70.958839
1717.000000, 71.456596
1718.000000, 71.927261
1719.000000, 72.405678
1720.000000, 72.892044
1721.000000, 73.343513
1722.000000, 73.895798
1723.000000, 74.503098
1724.000000, 75.094673
1725.000000, 75.643250
1726.000000, 76.288261
1727.000000, 76.787567
1728.000000, 77.359787
1729.000000, 77.832306
1730.000000, 78.377022
1731.000000, 78.826721
1732.000000, 79.334839
1733.000000, 79.799866
1734.000000, 80.285377
1735.000000, 80.671043
1736.000000, 81.097877
1737.000000, 81.620697
1738.000000, 82.112854
1739.000000, 82.520393
1740.000000, 83.000534
1741.000000, 83.522919
1742.000000, 83.876404
1743.000000, 84.421196
1744.000000, 84.732719
1745.000000, 85.085793
1746.000000, 85.455956
1747.000000, 85.794312
1748.000000, 85.899261
1749.000000, 86.180588
1750.000000, 86.244461
1751.000000, 86.229828
1752.000000, 86.284966
1753.000000, 86.281479
1754.000000, 86.239609
1755.000000, 86.192619
1756.000000, 86.123283
1757.000000, 85.863785
1758.000000, 85.610481
1759.000000, 85.399620
1760.000000, 84.969559
1761.000000, 84.732552
1762.000000, 84.302605
1763.000000, 83.875206
1764.000000, 83.451424
1765.000000, 83.156509
1766.000000, 82.634186
1767.000000, 82.317749
1768.000000, 81.821869
1769.000000, 81.420044
1770.000000, 80.971100
1771.000000, 80.630562
1772.000000, 80.192390
1773.000000, 79.839287
1774.000000, 79.434265
1775.000000, 79.034088
1776.000000, 78.755722
1777.000000, 78.298393
1778.000000, 77.917511
1779.000000, 77.601372
1780.000000, 77.212830
1781.000000, 76.803299
1782.000000, 76.355675
1783.000000, 76.093750
1784.000000, 75.773186
1785.000000, 75.327881
1786.000000, 75.080177
1787.000000, 74.631645
1788.000000, 74.356133
1789.000000, 73.971703
1790.000000, 73.631470
1791.000000, 73.377045
1792.000000, 73.104385
1793.000000, 72.857285
1794.000000, 72.645706
1795.000000, 72.383278
1796.000000, 72.242500
1797.000000, 71.926888
1798.000000, 71.796600
1799.000000, 71.604485
1800.000000, 71.464066
1801.000000, 71.357910
1802.000000, 71.096352
1803.000000, 71.085449
1804.000000, 70.932198
1805.000000, 70.879219
1806.000000, 70.854530
1807.000000, 70.853218
1808.000000, 70.820778
1809.000000, 70.836494
1810.000000, 70.874092
1811.000000, 70.801277
1812.000000, 70.896240
1813.000000, 70.979134
1814.000000, 71.060768
1815.000000, 71.104836
1816.000000, 71.230858
1817.000000, 71.269157
1818.000000, 71.530708
1819.000000, 71.691750
1820.000000, 71.822762
1821.000000, 72.082619
1822.000000, 72.290390
1823.000000, 72.408028
1824.000000, 72.665291
1825.000000, 72.918869
1826.000000, 73.297630
1827.000000, 73.456535
1828.000000, 73.752457
1829.000000, 74.131142
1830.000000, 74.398254
1831.000000, 74.805107
1832.000000, 75.101532
1833.000000, 75.418068
1834.000000, 75.831131
1835.000000, 76.172256
1836.000000, 76.527977
1837.000000, 76.965958
1838.000000, 77.346695
1839.000000, 77.846466
1840.000000, 78.120201
1841.000000, 78.636093
1842.000000, 79.056107
1843.000000, 79.415207
1844.000000, 79.748810
1845.000000, 80.147278
1846.000000, 80.641685
1847.000000, 81.074280
1848.000000, 81.484238
1849.000000, 81.924614
1850.000000, 82.261475
1851.000000, 82.632698
1852.000000, 83.059425
1853.000000, 83.427414
1854.000000, 83.837440
1855.000000, 84.290276
1856.000000, 84.586937
1857.000000, 84.922081
1858.000000, 85.183830
1859.000000, 85.519730
1860.000000, 85.856499
1861.000000, 86.227982
1862.000000, 86.298538
1863.000000, 86.714493
1864.000000, 86.827072
1865.000000, 87.124863
1866.000000, 87.305382
1867.000000, 87.441353
1868.000000, 87.556992
1869.000000, 87.823578
1870.000000, 87.832298
1871.000000, 87.912865
1872.000000, 88.155731
1873.000000, 88.245087
1874.000000, 88.155861
1875.000000, 88.282806
1876.000000, 88.248878
1877.000000, 88.267235
1878.000000, 88.173088
1879.000000, 88.078568
1880.000000, 88.014977
1881.000000, 87.995529
1882.000000, 87.793747
1883.000000, 87.597267
1884.000000, 87.487999
1885.000000, 87.349403
1886.000000, 87.173111
1887.000000, 86.998062
1888.000000, 86.744606
1889.000000, 86.573738
1890.000000, 86.135956
1891.000000, 86.056694
1892.000000, 85.771263
1893.000000, 85.526367
1894.000000, 85.186882
1895.000000, 84.869316
1896.000000, 84.578949
1897.000000, 84.398254
1898.000000, 83.934174
1899.000000, 83.619942
1900.000000, 83.371063
1901.000000, 83.076881
1902.000000, 82.644920
1903.000000, 82.433891
1904.000000, 82.063232
1905.000000, 81.736107
1906.000000, 81.334587
1907.000000, 81.035866
1908.000000, 80.818283
1909.000000, 80.584213
1910.000000, 80.156929
1911.000000, 79.950371
1912.000000, 79.608932
1913.000000, 79.399979
1914.000000, 78.911720
1915.000000, 78.807030
1916.000000, 78.526047
1917.000000, 78.257599
1918.000000, 77.984505
1919.000000, 77.842743
1920.000000, 77.569489
1921.000000, 77.360497
1922.000000, 77.151527
1923.000000, 76.889160
1924.000000, 76.662941
1925.000000, 76.501450
1926.000000, 76.293434
1927.000000, 76.208961
1928.000000, 76.004257
1929.000000, 75.866829
1930.000000, 75.744980
1931.000000, 75.622719
1932.000000, 75.465538
1933.000000, 75.366837
1934.000000, 75.237053
1935.000000, 75.210434
1936.000000, 75.107864
1937.000000, 75.099342
1938.000000, 75.014534
1939.000000, 75.070419
1940.000000, 74.949799
1941.000000, 74.985550
1942.000000, 74.952797
1943.000000, 74.879929
1944.000000, 74.909073
1945.000000, 75.004402
1946.000000, 75.070625
1947.000000, 75.059929
1948.000000, 75.090141
1949.000000, 75.217209
1950.000000, 75.299507
1951.000000, 75.408104
1952.000000, 75.564125
1953.000000, 75.566437
1954.000000, 75.745949
1955.000000, 75.818558
1956.000000, 75.935341
1957.000000, 76.057014
1958.000000, 76.248909
1959.000000, 76.360535
1960.000000, 76.534447
1961.000000, 76.729759
1962.000000, 76.816231
1963.000000, 77.047173
1964.000000, 77.228729
1965.000000, 77.404343
1966.000000, 77.594437
1967.000000, 77.856102
1968.000000, 78.126907
1969.000000, 78.339806
1970.000000, 78.572563
1971.000000, 78.761734
1972.000000, 78.980896
1973.000000, 79.206337
1974.000000, 79.553894
1975.000000, 79.712372
1976.000000, 79.989700
1977.000000, 80.209755
1978.000000, 80.391273
1979.000000, 80.710182
1980.000000, 80.960167
1981.000000, 81.307510
1982.000000, 81.544075
1983.000000, 81.737312
1984.000000, 82.031410
1985.000000, 82.278618
1986.000000, 82.394722
1987.000000, 82.780815
1988.000000, 82.981590
1989.000000, 83.137451
1990.000000, 83.350250
1991.000000, 83.659279
1992.000000, 83.900055
1993.000000, 83.918922
1994.000000, 84.176086
1995.000000, 84.357605
1996.000000, 84.631775
1997.000000, 84.816605
1998.000000, 84.969955
1999.000000, 85.094391
2000.000000, 85.237228
2001.000000, 85.383667
2002.000000, 85.442604
2003.000000, 85.580322
2004.000000, 85.718277
2005.000000, 85.830521
2006.000000, 85.825172
2007.000000, 85.998878
2008.000000, 86.079979
2009.000000, 86.052216
2010.000000, 86.080994
2011.000000, 86.096260
2012.000000, 86.200180
2013.000000, 86.142143
2014.000000, 86.184402
2015.000000, 86.077736
2016.000000, 86.013222
2017.000000, 86.080879
2018.000000, 85.912636
2019.000000, 85.855522
2020.000000, 85.819855
2021.000000, 85.791649
2022.000000, 85.656311
2023.000000, 85.448631
2024.000000, 85.351540
2025.000000, 85.183617
2026.000000, 85.044243
2027.000000, 84.911362
2028.000000, 84.752205
2029.000000, 84.613457
2030.000000, 84.346100
2031.000000, 84.215439
2032.000000, 84.032936
2033.000000, 83.932877
2034.000000, 83.618858
2035.000000, 83.413605
2036.000000, 83.207359
2037.000000, 82.895615
2038.000000, 82.641258
2039.000000, 82.447853
2040.000000, 82.179962
2041.000000, 81.871132
2042.000000, 81.631851
2043.000000, 81.378845
2044.000000, 81.215851
2045.000000, 80.968178
2046.000000, 80.545250
2047.000000, 80.390419
2048.000000, 80.117813
2049.000000, 79.903191
2050.000000, 79.525169
2051.000000, 79.340523
2052.000000, 79.092468
2053.000000, 78.897270
2054.000000, 78.564346
2055.000000, 78.288551
2056.000000, 77.972519
2057.000000, 77.709328
2058.000000, 77.412010
2059.000000, 77.218231
2060.000000, 76.888260
2061.000000, 76.690567
2062.000000, 76.326714
2063.000000, 76.079750
2064.000000, 75.784264
2065.000000, 75.568481
2066.000000, 75.328850
2067.000000, 75.040611
2068.000000, 74.794975
2069.000000, 74.517914
2070.000000, 74.196701
2071.000000, 74.067947
2072.000000, 73.757362
2073.000000, 73.564430
2074.000000, 73.296448
2075.000000, 73.059547
2076.000000, 72.944191
2077.000000, 72.599594
2078.000000, 72.440628
2079.000000, 72.179375
2080.000000, 71.999947
2081.000000, 71.936058
2082.000000, 71.659142
2083.000000, 71.594826
2084.000000, 71.379677
2085.000000, 71.219429
2086.000000, 71.111862
2087.000000, 70.977036
2088.000000, 70.962227
2089.000000, 70.877151
2090.000000, 70.775604
2091.000000, 70.720062
2092.000000, 70.580894
2093.000000, 70.581230
2094.000000, 70.500984
2095.000000, 70.517090
2096.000000, 70.435791
2097.000000, 70.508965
2098.000000, 70.445724
2099.000000, 70.396599
2100.000000, 70.467697
2101.000000, 70.474693
2102.000000, 70.456406
2103.000000, 70.477814
2104.000000, 70.477997
2105.000000, 70.499985
2106.000000, 70.516785
2107.000000, 70.613327
2108.000000, 70.566032
2109.000000, 70.691788
2110.000000, 70.658722
2111.000000, 70.605972
2112.000000, 70.731857
2113.000000, 70.748505
2114.000000, 70.830452
2115.000000, 70.839867
2116.000000, 70.954597
2117.000000, 70.958122
2118.000000, 70.977608
2119.000000, 70.954445
2120.000000, 71.012947
2121.000000, 71.041054
2122.000000, 71.015503
2123.000000, 71.086838
2124.000000, 71.016441
2125.000000, 71.012772
2126.000000, 70.896683
2127.000000, 70.736465
2128.000000, 70.485542
2129.000000, 70.305161
2130.000000, 69.956696
2131.000000, 69.539062
2132.000000, 69.340401
2133.000000, 68.993866
2134.000000, 68.785683
2135.000000, 68.772751
2136.000000, 68.785439
2137.000000, 68.976173
2138.000000, 69.175629
2139.000000, 69.579056
2140.000000, 69.982315
2141.000000, 70.508858
2142.000000, 70.923714
2143.000000, 71.392914
2144.000000, 71.813652
2145.000000, 72.203407
2146.000000, 72.562904
2147.000000, 72.816666
2148.000000, 73.017776
2149.000000, 73.104836
2150.000000, 73.101494
2151.000000, 73.139206
2152.000000, 72.939224
2153.000000, 72.751472
2154.000000, 72.460564
2155.000000, 72.146454
2156.000000, 71.776894
2157.000000, 71.470375
2158.000000, 71.019783
2159.000000, 70.650208
2160.000000, 70.267151
2161.000000, 70.091576
2162.000000, 69.919495
2163.000000, 69.910469
2164.000000, 70.131645
2165.000000, 70.485336
2166.000000, 71.023331
2167.000000, 71.721207
2168.000000, 72.373161
2169.000000, 73.188957
2170.000000, 73.897972
2171.000000, 74.684998
2172.000000, 75.287155
2173.000000, 75.885483
2174.000000, 76.399521
2175.000000, 76.705391
2176.000000, 76.948265
2177.000000, 77.198135
2178.000000, 77.346710
2179.000000, 77.429390
2180.000000, 77.390350
2181.000000, 77.483299
2182.000000, 77.315453
2183.000000, 77.183479
2184.000000, 77.064690
2185.000000, 77.014618
2186.000000, 76.971039
2187.000000, 76.804398
2188.000000, 76.641052
2189.000000, 76.569450
2190.000000, 76.477196
2191.000000, 76.391891
2192.000000, 76.498032
2193.000000, 76.488647
2194.000000, 76.471474
2195.000000, 76.427086
2196.000000, 76.374313
2197.000000, 76.211823
2198.000000, 76.222572
2199.000000, 75.965866
2200.000000, 75.872108
2201.000000, 75.702057
2202.000000, 75.475235
2203.000000, 75.329002
2204.000000, 75.020943
2205.000000, 74.844994
2206.000000, 74.701019
2207.000000, 74.540184
2208.000000, 74.420662
2209.000000, 74.269310
2210.000000, 74.364243
2211.000000, 74.377754
2212.000000, 74.338585
2213.000000, 74.469711
2214.000000, 74.412209
2215.000000, 74.533821
2216.000000, 74.616112
2217.000000, 74.594788
2218.000000, 74.656647
2219.000000, 74.590157
2220.000000, 74.539513
2221.000000, 74.549278
2222.000000, 74.311676
2223.000000, 74.089073
2224.000000, 73.881325
2225.000000, 73.620415
2226.000000, 73.406425
2227.000000, 73.096695
2228.000000, 72.881386
2229.000000, 72.635147
2230.000000, 72.273361
2231.000000, 72.072456
2232.000000, 71.890671
2233.000000, 71.549973
2234.000000, 71.497055
2235.000000, 71.276566
2236.000000, 71.043053
2237.000000, 70.825317
2238.000000, 70.602249
2239.000000, 70.495918
2240.000000, 70.251381
2241.000000, 69.985428
2242.000000, 69.742088
2243.000000, 69.376228
2244.000000, 69.009758
2245.000000, 68.725243
2246.000000, 68.413544
2247.000000, 67.897049
2248.000000, 67.532440
2249.000000, 67.106728
2250.000000, 66.489761
2251.000000, 66.080383
2252.000000, 65.483887
2253.000000, 64.958664
2254.000000, 64.341095
2255.000000, 63.772713
2256.000000, 63.179634
2257.000000, 62.491131
2258.000000, 61.862690
2259.000000, 61.131077
2260.000000, 60.501991
2261.000000, 59.828739
2262.000000, 59.155476
2263.000000, 58.455032
2264.000000, 57.697891
2265.000000, 57.005520
2266.000000, 56.271587
2267.000000, 55.589890
2268.000000, 54.901875
2269.000000, 54.263569
2270.000000, 53.674679
2271.000000, 53.157581
2272.000000, 52.663540
2273.000000, 52.260452
2274.000000, 52.070663
2275.000000, 51.739853
2276.000000, 51.597576
2277.000000, 51.566166
2278.000000, 51.452988
2279.000000, 51.295418
2280.000000, 51.256985
2281.000000, 51.150658
2282.000000, 51.024841
2283.000000, 50.856133
2284.000000, 50.705730
2285.000000, 50.550545
2286.000000, 50.308399
2287.000000, 50.126709
2288.000000, 49.900253
2289.000000, 49.724876
2290.000000, 49.524971
2291.000000, 49.358715
2292.000000, 49.200787
2293.000000, 48.987511
2294.000000, 48.775944
2295.000000, 48.636673
2296.000000, 48.407497
2297.000000, 48.229794
2298.000000, 48.124859
2299.000000, 47.920712
2300.000000, 47.848080
2301.000000, 47.756607
2302.000000, 47.625584
2303.000000, 47.542164
2304.000000, 47.534878
2305.000000, 47.407314
2306.000000, 47.331600
2307.000000, 47.248489
2308.000000, 47.071465
2309.000000, 46.967419
2310.000000, 46.735401
2311.000000, 46.583691
2312.000000, 46.485077
2313.000000, 46.448418
2314.000000, 46.330654
2315.000000, 46.485401
2316.000000, 46.678379
2317.000000, 46.964455
2318.000000, 47.400143
2319.000000, 47.915710
2320.000000, 48.453392
2321.000000, 49.134148
2322.000000, 49.742950
2323.000000, 50.311214
2324.000000, 50.925018
2325.000000, 51.453770
2326.000000, 51.849239
2327.000000, 52.330624
2328.000000, 52.883469
2329.000000, 53.183788
2330.000000, 53.595638
2331.000000, 54.023319
2332.000000, 54.340126
2333.000000, 54.707832
2334.000000, 55.143158
2335.000000, 55.381458
2336.000000, 55.681843
2337.000000, 55.975960
2338.000000, 56.101906
2339.000000, 56.327145
2340.000000, 56.450947
2341.000000, 56.571835
2342.000000, 56.561844
2343.000000, 56.690399
2344.000000, 56.689674
2345.000000, 56.698692
2346.000000, 56.773193
2347.000000, 56.787067
2348.000000, 56.797470
2349.000000, 56.923538
2350.000000, 56.921661
2351.000000, 56.968719
2352.000000, 57.095482
2353.000000, 57.199944
2354.000000, 57.289154
2355.000000, 57.458370
2356.000000, 57.498390
2357.000000, 57.532555
2358.000000, 57.540955
2359.000000, 57.549454
2360.000000, 57.509987
2361.000000, 57.536037
2362.000000, 57.379608
2363.000000, 57.336849
2364.000000, 57.424217
2365.000000, 57.308777
2366.000000, 57.401730
2367.000000, 57.384026
2368.000000, 57.492596
2369.000000, 57.532661
2370.000000, 57.552658
2371.000000, 57.674324
2372.000000, 57.714851
2373.000000, 57.818298
2374.000000, 57.801651
2375.000000, 57.878269
2376.000000, 58.066063
2377.000000, 57.978619
2378.000000, 58.002983
2379.000000, 58.017189
2380.000000, 57.955616
2381.000000, 57.912220
2382.000000, 57.817451
2383.000000, 57.684834
2384.000000, 57.583302
2385.000000, 57.449001
2386.000000, 57.246094
2387.000000, 57.117908
2388.000000, 56.987564
2389.000000, 56.806118
2390.000000, 56.745201
2391.000000, 56.594574
2392.000000, 56.369106
2393.000000, 56.259953
2394.000000, 56.114571
2395.000000, 55.904682
2396.000000, 55.746521
2397.000000, 55.587559
2398.000000, 55.369003
2399.000000, 55.253803
2400.000000, 55.193359
2401.000000, 55.075462
2402.000000, 54.992825
2403.000000, 55.085381
2404.000000, 55.036545
2405.000000, 55.143993
2406.000000, 55.419136
2407.000000, 55.605316
2408.000000, 55.806965
2409.000000, 56.064709
2410.000000, 56.294758
2411.000000, 56.448669
2412.000000, 56.669201
2413.000000, 56.887276
2414.000000, 56.879669
2415.000000, 57.116306
2416.000000, 57.198189
2417.000000, 57.248585
2418.000000, 57.361900
2419.000000, 57.437950
2420.000000, 57.369362
2421.000000, 57.469952
2422.000000, 57.465542
2423.000000, 57.375629
2424.000000, 57.394989
2425.000000, 57.364113
2426.000000, 57.372475
2427.000000, 57.223721
2428.000000, 57.131100
2429.000000, 57.014145
2430.000000, 56.917252
2431.000000, 56.774975
2432.000000, 56.596989
2433.000000, 56.417053
2434.000000, 56.228848
2435.000000, 55.936485
2436.000000, 55.622398
2437.000000, 55.416454
2438.000000, 54.989975
2439.000000, 54.553638
2440.000000, 54.052727
2441.000000, 53.643887
2442.000000, 53.017963
2443.000000, 52.370308
2444.000000, 51.753529
2445.000000, 51.044689
2446.000000, 50.391926
2447.000000, 49.721481
2448.000000, 49.092861
2449.000000, 48.435169
2450.000000, 47.820919
2451.000000, 47.178738
2452.000000, 46.614803
2453.000000, 46.073128
2454.000000, 45.457794
2455.000000, 44.964874
2456.000000, 44.444611
2457.000000, 43.956070
2458.000000, 43.479076
2459.000000, 43.174534
2460.000000, 42.992435
2461.000000, 42.792217
2462.000000, 42.883308
2463.000000, 43.033665
2464.000000, 43.192211
2465.000000, 43.566723
2466.000000, 44.057541
2467.000000, 44.486298
2468.000000, 45.063015
2469.000000, 45.727085
2470.000000, 46.288704
2471.000000, 46.857975
2472.000000, 47.412075
2473.000000, 47.974361
2474.000000, 48.511562
2475.000000, 49.079155
2476.000000, 49.498272
2477.000000, 49.930626
2478.000000, 50.282471
2479.000000, 50.620491
2480.000000, 50.859470
2481.000000, 51.054211
2482.000000, 51.231976
2483.000000, 51.270218
2484.000000, 51.227306
2485.000000, 51.340485
2486.000000, 51.261330
2487.000000, 51.245487
2488.000000, 51.192547
2489.000000, 51.117508
2490.000000, 51.090271
2491.000000, 51.031799
2492.000000, 51.035065
2493.000000, 50.949581
2494.000000, 50.901775
2495.000000, 50.891460
2496.000000, 50.820057
2497.000000, 50.686646
2498.000000, 50.591816
2499.000000, 50.553299
2500.000000, 50.369560
2501.000000, 50.233555
2502.000000, 50.251656
2503.000000, 49.978794
2504.000000, 49.891171
2505.000000, 49.809109
2506.000000, 49.693691
2507.000000, 49.559326
2508.000000, 49.510872
2509.000000, 49.472713
2510.000000, 49.381180
2511.000000, 49.345871
2512.000000, 49.402985
2513.000000, 49.415909
2514.000000, 49.513161
2515.000000, 49.614616
2516.000000, 49.695663
2517.000000, 49.825516
2518.000000, 50.098949
2519.000000, 50.325138
2520.000000, 50.490696
2521.000000, 50.663673
2522.000000, 50.984024
2523.000000, 51.242489
2524.000000, 51.429874
2525.000000, 51.720005
2526.000000, 51.984573
2527.000000, 52.234642
2528.000000, 52.500069
2529.000000, 52.773239
2530.000000, 52.986866
2531.000000, 53.274815
2532.000000, 53.546864
2533.000000, 53.705227
2534.000000, 53.884960
2535.000000, 54.109375
2536.000000, 54.361717
2537.000000, 54.427059
2538.000000, 54.631363
2539.000000, 54.704033
2540.000000, 54.811867
2541.000000, 54.913338
2542.000000, 54.948849
2543.000000, 54.993103
2544.000000, 55.015247
2545.000000, 55.069698
2546.000000, 55.178154
2547.000000, 55.099464
2548.000000, 55.073692
2549.000000, 55.106728
2550.000000, 55.142361
2551.000000, 55.087410
2552.000000, 55.029499
2553.000000, 55.121319
2554.000000, 55.047924
2555.000000, 55.126179
2556.000000, 55.109905
2557.000000, 55.239330
2558.000000, 55.198647
2559.000000, 55.322479
2560.000000, 55.389339
2561.000000, 55.497105
2562.000000, 55.597233
2563.000000, 55.701210
2564.000000, 55.814735
2565.000000, 55.854649
2566.000000, 56.103497
2567.000000, 56.184231
2568.000000, 56.254723
2569.000000, 56.396591
2570.000000, 56.457336
2571.000000, 56.523407
2572.000000, 56.660069
2573.000000, 56.737453
2574.000000, 56.877319
2575.000000, 56.872654
2576.000000, 57.045303
2577.000000, 57.067917
2578.000000, 57.115723
2579.000000, 57.284008
2580.000000, 57.512718
2581.000000, 57.776608
2582.000000, 57.924862
2583.000000, 58.194328
2584.000000, 58.489315
2585.000000, 58.779758
2586.000000, 59.020412
2587.000000, 59.314495
2588.000000, 59.608692
2589.000000, 59.909565
2590.000000, 60.226665
2591.000000, 60.456043
2592.000000, 60.722088
2593.000000, 61.000790
2594.000000, 61.334591
2595.000000, 61.516529
2596.000000, 61.796516
2597.000000, 61.994576
2598.000000, 62.224274
2599.000000, 62.341904
2600.000000, 62.442024
