# Wavelength  (nm), Transmission (%)
200.000000, 0.000022
201.000000, 0.000022
202.000000, 0.000027
203.000000, 0.000019
204.000000, 0.000016
205.000000, 0.000021
206.000000, 0.000023
207.000000, 0.000038
208.000000, 0.000020
209.000000, 0.000019
210.000000, 0.000040
211.000000, 0.000019
212.000000, 0.000032
213.000000, 0.000039
214.000000, 0.000015
215.000000, 0.000029
216.000000, 0.000021
217.000000, 0.000031
218.000000, 0.000025
219.000000, 0.000017
220.000000, 0.000035
221.000000, 0.000041
222.000000, 0.000019
223.000000, 0.000038
224.000000, 0.000037
225.000000, 0.000015
226.000000, 0.000040
227.000000, 0.000029
228.000000, 0.000034
229.000000, 0.000038
230.000000, 0.000036
231.000000, 0.000038
232.000000, 0.000036
233.000000, 0.000038
234.000000, 0.000036
235.000000, 0.000039
236.000000, 0.000027
237.000000, 0.000049
238.000000, 0.000035
239.000000, 0.000037
240.000000, 0.000030
241.000000, 0.000030
242.000000, 0.000033
243.000000, 0.000037
244.000000, 0.000021
245.000000, 0.000025
246.000000, 0.000040
247.000000, 0.000027
248.000000, 0.000026
249.000000, 0.000034
250.000000, 0.000037
251.000000, 0.000026
252.000000, 0.000021
253.000000, 0.000027
254.000000, 0.000019
255.000000, 0.000028
256.000000, 0.000026
257.000000, 0.000023
258.000000, 0.000029
259.000000, 0.000037
260.000000, 0.000020
261.000000, 0.000023
262.000000, 0.000018
263.000000, 0.000021
264.000000, 0.000032
265.000000, 0.000019
266.000000, 0.000029
267.000000, 0.000029
268.000000, 0.000017
269.000000, 0.000019
270.000000, 0.000032
271.000000, 0.000023
272.000000, 0.000021
273.000000, 0.000035
274.000000, 0.000024
275.000000, 0.000023
276.000000, 0.000024
277.000000, 0.000019
278.000000, 0.000026
279.000000, 0.000021
280.000000, 0.000030
281.000000, 0.000019
282.000000, 0.000021
283.000000, 0.000036
284.000000, 0.000016
285.000000, 0.000023
286.000000, 0.000028
287.000000, 0.000021
288.000000, 0.000021
289.000000, 0.000031
290.000000, 0.000019
291.000000, 0.000027
292.000000, 0.000008
293.000000, 0.000018
294.000000, 0.000024
295.000000, 0.000013
296.000000, 0.000014
297.000000, 0.000032
298.000000, 0.000014
299.000000, 0.000023
300.000000, 0.000010
301.000000, 0.000025
302.000000, 0.000017
303.000000, 0.000011
304.000000, 0.000031
305.000000, 0.000009
306.000000, 0.000012
307.000000, 0.000010
308.000000, 0.000006
309.000000, 0.000018
310.000000, 0.000010
311.000000, 0.000011
312.000000, 0.000005
313.000000, 0.000008
314.000000, 0.000009
315.000000, 0.000020
316.000000, 0.000005
317.000000, 0.000011
318.000000, 0.000007
319.000000, 0.000006
320.000000, 0.000025
321.000000, 0.000004
322.000000, 0.000009
323.000000, 0.000005
324.000000, 0.000007
325.000000, 0.000020
326.000000, 0.000011
327.000000, 0.000003
328.000000, 0.000009
329.000000, 0.000023
330.000000, 0.000011
331.000000, 0.000002
332.000000, 0.000023
333.000000, 0.000006
334.000000, 0.000008
335.000000, 0.000001
336.000000, 0.000003
337.000000, 0.000002
338.000000, 0.000012
339.000000, 0.000012
340.000000, 0.000000
341.000000, 0.000008
342.000000, 0.000001
343.000000, 0.000006
344.000000, 0.000005
345.000000, -0.000002
346.000000, -0.000011
347.000000, -0.000003
348.000000, -0.000002
349.000000, -0.000136
350.000000, -0.000009
351.000000, 0.000008
352.000000, 0.000003
353.000000, -0.000007
354.000000, 0.000003
355.000000, -0.000002
356.000000, -0.000001
357.000000, 0.000005
358.000000, -0.000012
359.000000, 0.000010
360.000000, -0.000009
361.000000, -0.000001
362.000000, 0.000007
363.000000, -0.000010
364.000000, -0.000002
365.000000, 0.000006
366.000000, 0.000009
367.000000, -0.000013
368.000000, 0.000003
369.000000, -0.000002
370.000000, -0.000004
371.000000, -0.000015
372.000000, 0.000006
373.000000, 0.000001
374.000000, 0.000001
375.000000, 0.000003
376.000000, 0.000003
377.000000, -0.000013
378.000000, 0.000008
379.000000, 0.000002
380.000000, 0.000010
381.000000, 0.000000
382.000000, 0.000003
383.000000, -0.000005
384.000000, 0.000002
385.000000, 0.000003
386.000000, 0.000009
387.000000, 0.000001
388.000000, -0.000005
389.000000, 0.000000
390.000000, 0.000004
391.000000, 0.000003
392.000000, -0.000003
393.000000, 0.000006
394.000000, -0.000007
395.000000, 0.000001
396.000000, 0.000005
397.000000, 0.000006
398.000000, 0.000004
399.000000, -0.000008
400.000000, 0.000001
401.000000, 0.000003
402.000000, 0.000007
403.000000, 0.000006
404.000000, -0.000008
405.000000, 0.000005
406.000000, 0.000005
407.000000, 0.000004
408.000000, 0.000008
409.000000, -0.000008
410.000000, 0.000003
411.000000, 0.000005
412.000000, -0.000003
413.000000, -0.000012
414.000000, 0.000003
415.000000, 0.000000
416.000000, 0.000001
417.000000, -0.000005
418.000000, 0.000000
419.000000, -0.000001
420.000000, -0.000011
421.000000, -0.000000
422.000000, 0.000008
423.000000, 0.000001
424.000000, -0.000009
425.000000, 0.000003
426.000000, 0.000005
427.000000, -0.000006
428.000000, 0.000006
429.000000, 0.000003
430.000000, 0.000006
431.000000, -0.000009
432.000000, -0.000001
433.000000, 0.000001
434.000000, -0.000001
435.000000, -0.000008
436.000000, 0.000009
437.000000, -0.000005
438.000000, 0.000003
439.000000, 0.000005
440.000000, 0.000000
441.000000, -0.000005
442.000000, -0.000003
443.000000, 0.000006
444.000000, 0.000004
445.000000, 0.000006
446.000000, 0.000005
447.000000, -0.000000
448.000000, -0.000016
449.000000, 0.000004
450.000000, -0.000001
451.000000, 0.000008
452.000000, -0.000003
453.000000, 0.000003
454.000000, 0.000002
455.000000, 0.000005
456.000000, 0.000004
457.000000, 0.000004
458.000000, 0.000001
459.000000, 0.000007
460.000000, 0.000003
461.000000, 0.000007
462.000000, 0.000003
463.000000, 0.000006
464.000000, 0.000003
465.000000, 0.000008
466.000000, 0.000002
467.000000, 0.000010
468.000000, 0.000005
469.000000, 0.000003
470.000000, 0.000006
471.000000, 0.000001
472.000000, 0.000008
473.000000, 0.000010
474.000000, 0.000009
475.000000, 0.000005
476.000000, 0.000001
477.000000, 0.000010
478.000000, 0.000003
479.000000, 0.000002
480.000000, 0.000008
481.000000, 0.000004
482.000000, 0.000007
483.000000, 0.000002
484.000000, 0.000001
485.000000, 0.000004
486.000000, 0.000002
487.000000, 0.000006
488.000000, 0.000007
489.000000, 0.000009
490.000000, -0.000002
491.000000, 0.000004
492.000000, 0.000006
493.000000, 0.000010
494.000000, 0.000012
495.000000, 0.000007
496.000000, 0.000006
497.000000, 0.000000
498.000000, 0.000002
499.000000, 0.000006
500.000000, 0.000003
501.000000, 0.000006
502.000000, 0.000010
503.000000, 0.000012
504.000000, 0.000008
505.000000, 0.000006
506.000000, 0.000007
507.000000, 0.000004
508.000000, 0.000013
509.000000, 0.000007
510.000000, 0.000004
511.000000, 0.000013
512.000000, 0.000009
513.000000, 0.000006
514.000000, 0.000009
515.000000, 0.000003
516.000000, 0.000005
517.000000, 0.000005
518.000000, 0.000011
519.000000, 0.000013
520.000000, 0.000013
521.000000, 0.000008
522.000000, 0.000007
523.000000, 0.000006
524.000000, 0.000014
525.000000, 0.000009
526.000000, 0.000006
527.000000, 0.000010
528.000000, 0.000013
529.000000, 0.000012
530.000000, 0.000014
531.000000, 0.000008
532.000000, 0.000009
533.000000, 0.000005
534.000000, 0.000010
535.000000, 0.000008
536.000000, 0.000015
537.000000, 0.000018
538.000000, 0.000022
539.000000, 0.000019
540.000000, 0.000019
541.000000, 0.000012
542.000000, 0.000022
543.000000, 0.000008
544.000000, 0.000006
545.000000, 0.000007
546.000000, 0.000003
547.000000, 0.000005
548.000000, 0.000007
549.000000, 0.000001
550.000000, 0.000002
551.000000, 0.000006
552.000000, -0.000002
553.000000, 0.000002
554.000000, 0.000000
555.000000, 0.000002
556.000000, 0.000000
557.000000, 0.000000
558.000000, -0.000002
559.000000, 0.000001
560.000000, 0.000001
561.000000, 0.000002
562.000000, 0.000005
563.000000, -0.000003
564.000000, 0.000004
565.000000, -0.000001
566.000000, 0.000009
567.000000, -0.000003
568.000000, 0.000004
569.000000, 0.000002
570.000000, 0.000003
571.000000, -0.000003
572.000000, 0.000001
573.000000, -0.000001
574.000000, -0.000005
575.000000, -0.000003
576.000000, -0.000002
577.000000, 0.000007
578.000000, -0.000000
579.000000, 0.000003
580.000000, -0.000010
581.000000, -0.000003
582.000000, 0.000001
583.000000, -0.000005
584.000000, -0.000012
585.000000, 0.000004
586.000000, -0.000003
587.000000, -0.000000
588.000000, 0.000001
589.000000, -0.000003
590.000000, -0.000007
591.000000, 0.000001
592.000000, -0.000002
593.000000, -0.000012
594.000000, 0.000003
595.000000, -0.000009
596.000000, -0.000004
597.000000, 0.000002
598.000000, -0.000009
599.000000, -0.000003
600.000000, 0.000007
601.000000, -0.000014
602.000000, -0.000003
603.000000, 0.000001
604.000000, 0.000000
605.000000, 0.000003
606.000000, 0.000002
607.000000, -0.000000
608.000000, 0.000003
609.000000, 0.000004
610.000000, 0.000006
611.000000, 0.000007
612.000000, 0.000017
613.000000, 0.000009
614.000000, 0.000014
615.000000, 0.000015
616.000000, 0.000022
617.000000, 0.000027
618.000000, 0.000044
619.000000, 0.000032
620.000000, 0.000035
621.000000, 0.000039
622.000000, 0.000026
623.000000, 0.000024
624.000000, 0.000023
625.000000, 0.000021
626.000000, 0.000018
627.000000, 0.000017
628.000000, 0.000014
629.000000, 0.000021
630.000000, 0.000018
631.000000, 0.000023
632.000000, 0.000032
633.000000, 0.000037
634.000000, 0.000043
635.000000, 0.000062
636.000000, 0.000070
637.000000, 0.000074
638.000000, 0.000080
639.000000, 0.000066
640.000000, 0.000069
641.000000, 0.000060
642.000000, 0.000061
643.000000, 0.000055
644.000000, 0.000056
645.000000, 0.000042
646.000000, 0.000050
647.000000, 0.000062
648.000000, 0.000058
649.000000, 0.000059
650.000000, 0.000058
651.000000, 0.000074
652.000000, 0.000078
653.000000, 0.000082
654.000000, 0.000090
655.000000, 0.000099
656.000000, 0.000096
657.000000, 0.000114
658.000000, 0.000107
659.000000, 0.000103
660.000000, 0.000100
661.000000, 0.000101
662.000000, 0.000106
663.000000, 0.000090
664.000000, 0.000084
665.000000, 0.000080
666.000000, 0.000082
667.000000, 0.000081
668.000000, 0.000095
669.000000, 0.000092
670.000000, 0.000100
671.000000, 0.000121
672.000000, 0.000134
673.000000, 0.000177
674.000000, 0.000209
675.000000, 0.000281
676.000000, 0.000365
677.000000, 0.000420
678.000000, 0.000471
679.000000, 0.000453
680.000000, 0.000414
681.000000, 0.000334
682.000000, 0.000282
683.000000, 0.000239
684.000000, 0.000201
685.000000, 0.000185
686.000000, 0.000189
687.000000, 0.000173
688.000000, 0.000175
689.000000, 0.000193
690.000000, 0.000205
691.000000, 0.000237
692.000000, 0.000302
693.000000, 0.000351
694.000000, 0.000438
695.000000, 0.000559
696.000000, 0.000707
697.000000, 0.000819
698.000000, 0.000869
699.000000, 0.000823
700.000000, 0.000699
701.000000, 0.000582
702.000000, 0.000478
703.000000, 0.000411
704.000000, 0.000358
705.000000, 0.000306
706.000000, 0.000300
707.000000, 0.000275
708.000000, 0.000272
709.000000, 0.000282
710.000000, 0.000299
711.000000, 0.000316
712.000000, 0.000353
713.000000, 0.000408
714.000000, 0.000504
715.000000, 0.000613
716.000000, 0.000815
717.000000, 0.001045
718.000000, 0.001392
719.000000, 0.001643
720.000000, 0.001812
721.000000, 0.001743
722.000000, 0.001500
723.000000, 0.001233
724.000000, 0.000995
725.000000, 0.000825
726.000000, 0.000718
727.000000, 0.000653
728.000000, 0.000608
729.000000, 0.000597
730.000000, 0.000628
731.000000, 0.000695
732.000000, 0.000800
733.000000, 0.001013
734.000000, 0.001373
735.000000, 0.001928
736.000000, 0.002643
737.000000, 0.003094
738.000000, 0.002853
739.000000, 0.002053
740.000000, 0.001328
741.000000, 0.000852
742.000000, 0.000585
743.000000, 0.000423
744.000000, 0.000353
745.000000, 0.000291
746.000000, 0.000274
747.000000, 0.000269
748.000000, 0.000278
749.000000, 0.000335
750.000000, 0.000446
751.000000, 0.000693
752.000000, 0.001164
753.000000, 0.001408
754.000000, 0.001064
755.000000, 0.000523
756.000000, 0.000206
757.000000, 0.000104
758.000000, 0.000076
759.000000, 0.000038
760.000000, 0.000025
761.000000, 0.000028
762.000000, 0.000013
763.000000, 0.000029
764.000000, 0.000009
765.000000, 0.000009
766.000000, 0.000009
767.000000, 0.000010
768.000000, 0.000026
769.000000, 0.000005
770.000000, 0.000013
771.000000, 0.000013
772.000000, 0.000030
773.000000, 0.000009
774.000000, 0.000005
775.000000, 0.000014
776.000000, 0.000010
777.000000, 0.000023
778.000000, 0.000006
779.000000, 0.000008
780.000000, 0.000002
781.000000, 0.000011
782.000000, 0.000015
783.000000, 0.000009
784.000000, 0.000011
785.000000, 0.000001
786.000000, 0.000013
787.000000, 0.000024
788.000000, 0.000012
789.000000, 0.000009
790.000000, 0.000010
791.000000, 0.000009
792.000000, 0.000021
793.000000, 0.000006
794.000000, 0.000002
795.000000, 0.000008
796.000000, 0.000006
797.000000, 0.000023
798.000000, 0.000020
799.000000, -0.000000
800.000000, -0.000212
801.000000, -0.000328
802.000000, -0.000248
803.000000, -0.000182
804.000000, 0.000046
805.000000, -0.000344
806.000000, -0.000385
807.000000, -0.000501
808.000000, -0.000565
809.000000, -0.000275
810.000000, -0.000019
811.000000, -0.000456
812.000000, -0.000064
813.000000, 0.000107
814.000000, -0.000395
815.000000, -0.000413
816.000000, -0.000581
817.000000, -0.000294
818.000000, -0.000341
819.000000, -0.000242
820.000000, -0.000228
821.000000, -0.000347
822.000000, -0.000277
823.000000, -0.000149
824.000000, -0.000352
825.000000, 0.000035
826.000000, -0.000190
827.000000, 0.000064
828.000000, 0.000115
829.000000, 0.000082
830.000000, -0.000141
831.000000, 0.000154
832.000000, -0.000198
833.000000, -0.000132
834.000000, -0.000239
835.000000, -0.000022
836.000000, -0.000222
837.000000, 0.000028
838.000000, -0.000352
839.000000, -0.000027
840.000000, -0.000023
841.000000, -0.000018
842.000000, 0.000034
843.000000, 0.000094
844.000000, 0.000076
845.000000, 0.000178
846.000000, -0.000018
847.000000, 0.000156
848.000000, 0.000173
849.000000, 0.000022
850.000000, -0.000128
851.000000, 0.000005
852.000000, -0.000119
853.000000, 0.000157
854.000000, 0.000087
855.000000, 0.000031
856.000000, 0.000164
857.000000, -0.000077
858.000000, -0.000021
859.000000, 0.000103
860.000000, 0.000176
861.000000, 0.000126
862.000000, 0.000027
863.000000, 0.000016
864.000000, 0.000200
865.000000, 0.000212
866.000000, 0.000256
867.000000, 0.000157
868.000000, 0.000280
869.000000, 0.000273
870.000000, 0.000228
871.000000, 0.000156
872.000000, 0.000210
873.000000, 0.000218
874.000000, 0.000234
875.000000, 0.000308
876.000000, 0.000211
877.000000, 0.000280
878.000000, 0.000173
879.000000, 0.000250
880.000000, 0.000165
881.000000, 0.000293
882.000000, 0.000298
883.000000, 0.000351
884.000000, 0.000366
885.000000, 0.000324
886.000000, 0.000245
887.000000, 0.000226
888.000000, 0.000258
889.000000, 0.000258
890.000000, 0.000352
891.000000, 0.000323
892.000000, 0.000300
893.000000, 0.000306
894.000000, 0.000314
895.000000, 0.000260
896.000000, 0.000321
897.000000, 0.000245
898.000000, 0.000339
899.000000, 0.000326
900.000000, 0.000297
901.000000, 0.000349
902.000000, 0.000380
903.000000, 0.000375
904.000000, 0.000358
905.000000, 0.000250
906.000000, 0.000351
907.000000, 0.000308
908.000000, 0.000282
909.000000, 0.000265
910.000000, 0.000302
911.000000, 0.000330
912.000000, 0.000316
913.000000, 0.000354
914.000000, 0.000356
915.000000, 0.000277
916.000000, 0.000356
917.000000, 0.000321
918.000000, 0.000258
919.000000, 0.000254
920.000000, 0.000323
921.000000, 0.000298
922.000000, 0.000264
923.000000, 0.000434
924.000000, 0.000382
925.000000, 0.000348
926.000000, 0.000383
927.000000, 0.000436
928.000000, 0.000428
929.000000, 0.000453
930.000000, 0.000422
931.000000, 0.000442
932.000000, 0.000551
933.000000, 0.000456
934.000000, 0.000412
935.000000, 0.000453
936.000000, 0.000388
937.000000, 0.000325
938.000000, 0.000413
939.000000, 0.000455
940.000000, 0.000388
941.000000, 0.000436
942.000000, 0.000518
943.000000, 0.000393
944.000000, 0.000540
945.000000, 0.000494
946.000000, 0.000536
947.000000, 0.000569
948.000000, 0.000536
949.000000, 0.000595
950.000000, 0.000382
951.000000, 0.000484
952.000000, 0.000404
953.000000, 0.000372
954.000000, 0.000362
955.000000, 0.000295
956.000000, 0.000283
957.000000, 0.000166
958.000000, 0.000147
959.000000, 0.000229
960.000000, 0.000203
961.000000, 0.000233
962.000000, 0.000274
963.000000, 0.000274
964.000000, 0.000289
965.000000, 0.000348
966.000000, 0.000407
967.000000, 0.000441
968.000000, 0.000428
969.000000, 0.000449
970.000000, 0.000416
971.000000, 0.000449
972.000000, 0.000431
973.000000, 0.000440
974.000000, 0.000446
975.000000, 0.000321
976.000000, 0.000236
977.000000, 0.000332
978.000000, 0.000277
979.000000, 0.000217
980.000000, 0.000273
981.000000, 0.000179
982.000000, 0.000197
983.000000, 0.000160
984.000000, 0.000294
985.000000, 0.000216
986.000000, 0.000245
987.000000, 0.000151
988.000000, 0.000200
989.000000, 0.000219
990.000000, 0.000179
991.000000, 0.000285
992.000000, 0.000152
993.000000, 0.000149
994.000000, 0.000241
995.000000, 0.000164
996.000000, 0.000242
997.000000, 0.000179
998.000000, 0.000194
999.000000, 0.000220
1000.000000, 0.000144
1001.000000, 0.000293
1002.000000, 0.000248
1003.000000, 0.000271
1004.000000, 0.000181
1005.000000, 0.000195
1006.000000, 0.000176
1007.000000, 0.000238
1008.000000, 0.000226
1009.000000, 0.000236
1010.000000, 0.000226
1011.000000, 0.000284
1012.000000, 0.000193
1013.000000, 0.000143
1014.000000, 0.000223
1015.000000, 0.000203
1016.000000, 0.000221
1017.000000, 0.000267
1018.000000, 0.000151
1019.000000, 0.000121
1020.000000, 0.000186
1021.000000, 0.000208
1022.000000, 0.000301
1023.000000, 0.000233
1024.000000, 0.000205
1025.000000, 0.000224
1026.000000, 0.000199
1027.000000, 0.000273
1028.000000, 0.000245
1029.000000, 0.000220
1030.000000, 0.000195
1031.000000, 0.000177
1032.000000, 0.000240
1033.000000, 0.000275
1034.000000, 0.000226
1035.000000, 0.000193
1036.000000, 0.000225
1037.000000, 0.000178
1038.000000, 0.000149
1039.000000, 0.000231
1040.000000, 0.000199
1041.000000, 0.000233
1042.000000, 0.000250
1043.000000, 0.000184
1044.000000, 0.000226
1045.000000, 0.000256
1046.000000, 0.000222
1047.000000, 0.000185
1048.000000, 0.000168
1049.000000, 0.000264
1050.000000, 0.000175
1051.000000, 0.000130
1052.000000, 0.000225
1053.000000, 0.000207
1054.000000, 0.000190
1055.000000, 0.000163
1056.000000, 0.000306
1057.000000, 0.000142
1058.000000, 0.000179
1059.000000, 0.000238
1060.000000, 0.000198
1061.000000, 0.000188
1062.000000, 0.000237
1063.000000, 0.000146
1064.000000, 0.000182
1065.000000, 0.000225
1066.000000, 0.000188
1067.000000, 0.000263
1068.000000, 0.000244
1069.000000, 0.000263
1070.000000, 0.000238
1071.000000, 0.000177
1072.000000, 0.000208
1073.000000, 0.000156
1074.000000, 0.000230
1075.000000, 0.000191
1076.000000, 0.000284
1077.000000, 0.000229
1078.000000, 0.000209
1079.000000, 0.000228
1080.000000, 0.000228
1081.000000, 0.000243
1082.000000, 0.000264
1083.000000, 0.000151
1084.000000, 0.000218
1085.000000, 0.000227
1086.000000, 0.000159
1087.000000, 0.000208
1088.000000, 0.000220
1089.000000, 0.000225
1090.000000, 0.000196
1091.000000, 0.000146
1092.000000, 0.000199
1093.000000, 0.000237
1094.000000, 0.000222
1095.000000, 0.000194
1096.000000, 0.000159
1097.000000, 0.000214
1098.000000, 0.000173
1099.000000, 0.000200
1100.000000, 0.000223
1101.000000, 0.000240
1102.000000, 0.000193
1103.000000, 0.000253
1104.000000, 0.000203
1105.000000, 0.000278
1106.000000, 0.000235
1107.000000, 0.000189
1108.000000, 0.000197
1109.000000, 0.000214
1110.000000, 0.000208
1111.000000, 0.000220
1112.000000, 0.000219
1113.000000, 0.000200
1114.000000, 0.000188
1115.000000, 0.000180
1116.000000, 0.000180
1117.000000, 0.000128
1118.000000, 0.000223
1119.000000, 0.000191
1120.000000, 0.000187
1121.000000, 0.000169
1122.000000, 0.000229
1123.000000, 0.000189
1124.000000, 0.000237
1125.000000, 0.000264
1126.000000, 0.000152
1127.000000, 0.000152
1128.000000, 0.000185
1129.000000, 0.000186
1130.000000, 0.000337
1131.000000, 0.000262
1132.000000, 0.000201
1133.000000, 0.000288
1134.000000, 0.000226
1135.000000, 0.000244
1136.000000, 0.000229
1137.000000, 0.000141
1138.000000, 0.000177
1139.000000, 0.000212
1140.000000, 0.000228
1141.000000, 0.000202
1142.000000, 0.000212
1143.000000, 0.000220
1144.000000, 0.000221
1145.000000, 0.000271
1146.000000, 0.000252
1147.000000, 0.000183
1148.000000, 0.000192
1149.000000, 0.000237
1150.000000, 0.000267
1151.000000, 0.000187
1152.000000, 0.000194
1153.000000, 0.000229
1154.000000, 0.000252
1155.000000, 0.000203
1156.000000, 0.000288
1157.000000, 0.000250
1158.000000, 0.000201
1159.000000, 0.000195
1160.000000, 0.000267
1161.000000, 0.000161
1162.000000, 0.000197
1163.000000, 0.000196
1164.000000, 0.000195
1165.000000, 0.000204
1166.000000, 0.000163
1167.000000, 0.000180
1168.000000, 0.000219
1169.000000, 0.000204
1170.000000, 0.000224
1171.000000, 0.000225
1172.000000, 0.000181
1173.000000, 0.000093
1174.000000, 0.000219
1175.000000, 0.000164
1176.000000, 0.000254
1177.000000, 0.000263
1178.000000, 0.000212
1179.000000, 0.000190
1180.000000, 0.000206
1181.000000, 0.000208
1182.000000, 0.000194
1183.000000, 0.000161
1184.000000, 0.000218
1185.000000, 0.000168
1186.000000, 0.000227
1187.000000, 0.000169
1188.000000, 0.000276
1189.000000, 0.000150
1190.000000, 0.000239
1191.000000, 0.000210
1192.000000, 0.000213
1193.000000, 0.000107
1194.000000, 0.000178
1195.000000, 0.000197
1196.000000, 0.000232
1197.000000, 0.000251
1198.000000, 0.000251
1199.000000, 0.000412
1200.000000, 0.000211
1201.000000, 0.000259
1202.000000, 0.000179
1203.000000, 0.000257
1204.000000, 0.000183
1205.000000, 0.000244
1206.000000, 0.000179
1207.000000, 0.000251
1208.000000, 0.000225
1209.000000, 0.000233
1210.000000, 0.000202
1211.000000, 0.000162
1212.000000, 0.000181
1213.000000, 0.000147
1214.000000, 0.000248
1215.000000, 0.000184
1216.000000, 0.000222
1217.000000, 0.000227
1218.000000, 0.000152
1219.000000, 0.000174
1220.000000, 0.000157
1221.000000, 0.000155
1222.000000, 0.000249
1223.000000, 0.000254
1224.000000, 0.000186
1225.000000, 0.000183
1226.000000, 0.000178
1227.000000, 0.000174
1228.000000, 0.000212
1229.000000, 0.000155
1230.000000, 0.000213
1231.000000, 0.000135
1232.000000, 0.000177
1233.000000, 0.000231
1234.000000, 0.000201
1235.000000, 0.000209
1236.000000, 0.000256
1237.000000, 0.000116
1238.000000, 0.000219
1239.000000, 0.000183
1240.000000, 0.000183
1241.000000, 0.000191
1242.000000, 0.000258
1243.000000, 0.000234
1244.000000, 0.000176
1245.000000, 0.000257
1246.000000, 0.000174
1247.000000, 0.000245
1248.000000, 0.000213
1249.000000, 0.000142
1250.000000, 0.000152
1251.000000, 0.000267
1252.000000, 0.000204
1253.000000, 0.000177
1254.000000, 0.000236
1255.000000, 0.000245
1256.000000, 0.000273
1257.000000, 0.000205
1258.000000, 0.000244
1259.000000, 0.000205
1260.000000, 0.000167
1261.000000, 0.000135
1262.000000, 0.000306
1263.000000, 0.000184
1264.000000, 0.000220
1265.000000, 0.000223
1266.000000, 0.000290
1267.000000, 0.000233
1268.000000, 0.000275
1269.000000, 0.000260
1270.000000, 0.000176
1271.000000, 0.000125
1272.000000, 0.000230
1273.000000, 0.000320
1274.000000, 0.000209
1275.000000, 0.000281
1276.000000, 0.000279
1277.000000, 0.000261
1278.000000, 0.000304
1279.000000, 0.000345
1280.000000, 0.000276
1281.000000, 0.000306
1282.000000, 0.000307
1283.000000, 0.000319
1284.000000, 0.000405
1285.000000, 0.000369
1286.000000, 0.000351
1287.000000, 0.000470
1288.000000, 0.000427
1289.000000, 0.000496
1290.000000, 0.000489
1291.000000, 0.000504
1292.000000, 0.000572
1293.000000, 0.000604
1294.000000, 0.000727
1295.000000, 0.000828
1296.000000, 0.000854
1297.000000, 0.000907
1298.000000, 0.001090
1299.000000, 0.001160
1300.000000, 0.001303
1301.000000, 0.001483
1302.000000, 0.001663
1303.000000, 0.001796
1304.000000, 0.002184
1305.000000, 0.002398
1306.000000, 0.002642
1307.000000, 0.003140
1308.000000, 0.003633
1309.000000, 0.004226
1310.000000, 0.004923
1311.000000, 0.005643
1312.000000, 0.006641
1313.000000, 0.007634
1314.000000, 0.008989
1315.000000, 0.010480
1316.000000, 0.012473
1317.000000, 0.014648
1318.000000, 0.017254
1319.000000, 0.020576
1320.000000, 0.024602
1321.000000, 0.029292
1322.000000, 0.035204
1323.000000, 0.042291
1324.000000, 0.051154
1325.000000, 0.062380
1326.000000, 0.076241
1327.000000, 0.093361
1328.000000, 0.114029
1329.000000, 0.140827
1330.000000, 0.173563
1331.000000, 0.215291
1332.000000, 0.269569
1333.000000, 0.340666
1334.000000, 0.429496
1335.000000, 0.539799
1336.000000, 0.686020
1337.000000, 0.871822
1338.000000, 1.135742
1339.000000, 1.486399
1340.000000, 1.943243
1341.000000, 2.541660
1342.000000, 3.198808
1343.000000, 4.003553
1344.000000, 4.943210
1345.000000, 6.355213
1346.000000, 8.229860
1347.000000, 10.729120
1348.000000, 14.045094
1349.000000, 18.543417
1350.000000, 24.256254
1351.000000, 31.740084
1352.000000, 40.972172
1353.000000, 51.323528
1354.000000, 61.703426
1355.000000, 70.942543
1356.000000, 77.897583
1357.000000, 82.605331
1358.000000, 84.964478
1359.000000, 85.744446
1360.000000, 85.564941
1361.000000, 84.727715
1362.000000, 83.739662
1363.000000, 83.069748
1364.000000, 82.294655
1365.000000, 81.791718
1366.000000, 81.537506
1367.000000, 81.431114
1368.000000, 81.456947
1369.000000, 81.616096
1370.000000, 81.846092
1371.000000, 82.143188
1372.000000, 82.394814
1373.000000, 82.687035
1374.000000, 82.971291
1375.000000, 83.161263
1376.000000, 83.363365
1377.000000, 83.478722
1378.000000, 83.582382
1379.000000, 83.639267
1380.000000, 83.730118
1381.000000, 83.716064
1382.000000, 83.882225
1383.000000, 83.809868
1384.000000, 83.830605
1385.000000, 83.776215
1386.000000, 83.881065
1387.000000, 84.008835
1388.000000, 84.005592
1389.000000, 84.082008
1390.000000, 84.255905
1391.000000, 84.395958
1392.000000, 84.402260
1393.000000, 84.690994
1394.000000, 84.850868
1395.000000, 85.049019
1396.000000, 85.157387
1397.000000, 85.268311
1398.000000, 85.613976
1399.000000, 85.871750
1400.000000, 85.987923
1401.000000, 86.197403
1402.000000, 86.303368
1403.000000, 86.395294
1404.000000, 86.529907
1405.000000, 86.626228
1406.000000, 86.804291
1407.000000, 86.807999
1408.000000, 86.855827
1409.000000, 86.903069
1410.000000, 86.765739
1411.000000, 86.745377
1412.000000, 86.716156
1413.000000, 86.743195
1414.000000, 86.669571
1415.000000, 86.677826
1416.000000, 86.548698
1417.000000, 86.507843
1418.000000, 86.482361
1419.000000, 86.379936
1420.000000, 86.416069
1421.000000, 86.147118
1422.000000, 86.171654
1423.000000, 86.141129
1424.000000, 86.047287
1425.000000, 86.093742
1426.000000, 86.118050
1427.000000, 86.071228
1428.000000, 86.098122
1429.000000, 86.099968
1430.000000, 86.139969
1431.000000, 86.262505
1432.000000, 86.269798
1433.000000, 86.373955
1434.000000, 86.436752
1435.000000, 86.493233
1436.000000, 86.612968
1437.000000, 86.629990
1438.000000, 86.709023
1439.000000, 86.671356
1440.000000, 86.785400
1441.000000, 86.667625
1442.000000, 86.798424
1443.000000, 86.794647
1444.000000, 86.710648
1445.000000, 86.768623
1446.000000, 86.673454
1447.000000, 86.655083
1448.000000, 86.507515
1449.000000, 86.494041
1450.000000, 86.455566
1451.000000, 86.217995
1452.000000, 86.226501
1453.000000, 86.044785
1454.000000, 86.029678
1455.000000, 85.923782
1456.000000, 85.918236
1457.000000, 85.827988
1458.000000, 85.663559
1459.000000, 85.610519
1460.000000, 85.514221
1461.000000, 85.354637
1462.000000, 85.339828
1463.000000, 85.382065
1464.000000, 85.234024
1465.000000, 85.186371
1466.000000, 85.175095
1467.000000, 85.165947
1468.000000, 85.089172
1469.000000, 84.985817
1470.000000, 84.920204
1471.000000, 84.860619
1472.000000, 85.035736
1473.000000, 84.954254
1474.000000, 84.921051
1475.000000, 85.048729
1476.000000, 84.968048
1477.000000, 84.977280
1478.000000, 84.985901
1479.000000, 84.947845
1480.000000, 84.933319
1481.000000, 84.969223
1482.000000, 85.108963
1483.000000, 84.983673
1484.000000, 85.095169
1485.000000, 85.074554
1486.000000, 85.069397
1487.000000, 85.043228
1488.000000, 85.040031
1489.000000, 85.050323
1490.000000, 85.047028
1491.000000, 84.946609
1492.000000, 85.027557
1493.000000, 84.898766
1494.000000, 84.996582
1495.000000, 84.939339
1496.000000, 84.795189
1497.000000, 84.838829
1498.000000, 84.761978
1499.000000, 84.810730
1500.000000, 84.742195
1501.000000, 84.661606
1502.000000, 84.607834
1503.000000, 84.649277
1504.000000, 84.494934
1505.000000, 84.528206
1506.000000, 84.484276
1507.000000, 84.371407
1508.000000, 84.359169
1509.000000, 84.395546
1510.000000, 84.351410
1511.000000, 84.320740
1512.000000, 84.304115
1513.000000, 84.321365
1514.000000, 84.294304
1515.000000, 84.201523
1516.000000, 84.466263
1517.000000, 84.347679
1518.000000, 84.347595
1519.000000, 84.484848
1520.000000, 84.516884
1521.000000, 84.573647
1522.000000, 84.513870
1523.000000, 84.633621
1524.000000, 84.702728
1525.000000, 84.879341
1526.000000, 84.959038
1527.000000, 85.094986
1528.000000, 85.182884
1529.000000, 85.410149
1530.000000, 85.525284
1531.000000, 85.632553
1532.000000, 85.803673
1533.000000, 85.889343
1534.000000, 86.115967
1535.000000, 86.242905
1536.000000, 86.416748
1537.000000, 86.492744
1538.000000, 86.629326
1539.000000, 86.818832
1540.000000, 86.983002
1541.000000, 87.090286
1542.000000, 87.161804
1543.000000, 87.385216
1544.000000, 87.562187
1545.000000, 87.607330
1546.000000, 87.815544
1547.000000, 87.976524
1548.000000, 87.968056
1549.000000, 88.011017
1550.000000, 88.117889
1551.000000, 88.131889
1552.000000, 88.262100
1553.000000, 88.200951
1554.000000, 88.215164
1555.000000, 88.126717
1556.000000, 88.231400
1557.000000, 88.080528
1558.000000, 87.933395
1559.000000, 87.891014
1560.000000, 87.832695
1561.000000, 87.620125
1562.000000, 87.521584
1563.000000, 87.382980
1564.000000, 87.185211
1565.000000, 87.081314
1566.000000, 86.885849
1567.000000, 86.628815
1568.000000, 86.347321
1569.000000, 86.224518
1570.000000, 86.127312
1571.000000, 85.795647
1572.000000, 85.439034
1573.000000, 85.320175
1574.000000, 85.149345
1575.000000, 84.830177
1576.000000, 84.488312
1577.000000, 84.360680
1578.000000, 84.126709
1579.000000, 83.819130
1580.000000, 83.554810
1581.000000, 83.379517
1582.000000, 83.110435
1583.000000, 82.903114
1584.000000, 82.684135
1585.000000, 82.474594
1586.000000, 82.261780
1587.000000, 82.116798
1588.000000, 81.946365
1589.000000, 81.780685
1590.000000, 81.631638
1591.000000, 81.544624
1592.000000, 81.299896
1593.000000, 81.244400
1594.000000, 81.277130
1595.000000, 81.092728
1596.000000, 81.038544
1597.000000, 81.093803
1598.000000, 80.983253
1599.000000, 80.923813
1600.000000, 80.979095
1601.000000, 80.880913
1602.000000, 80.941811
1603.000000, 80.955887
1604.000000, 80.922920
1605.000000, 80.888580
1606.000000, 81.002708
1607.000000, 81.098824
1608.000000, 81.201187
1609.000000, 81.391891
1610.000000, 81.398842
1611.000000, 81.420715
1612.000000, 81.559326
1613.000000, 81.760368
1614.000000, 81.805977
1615.000000, 81.952538
1616.000000, 82.064400
1617.000000, 82.167671
1618.000000, 82.305557
1619.000000, 82.561150
1620.000000, 82.680023
1621.000000, 82.829277
1622.000000, 82.994858
1623.000000, 83.157196
1624.000000, 83.312897
1625.000000, 83.524727
1626.000000, 83.616768
1627.000000, 83.858421
1628.000000, 83.885254
1629.000000, 84.130516
1630.000000, 84.089569
1631.000000, 84.345749
1632.000000, 84.329414
1633.000000, 84.358566
1634.000000, 84.561516
1635.000000, 84.614441
1636.000000, 84.680313
1637.000000, 84.756050
1638.000000, 84.811821
1639.000000, 84.851448
1640.000000, 84.898666
1641.000000, 84.845863
1642.000000, 84.914711
1643.000000, 84.711678
1644.000000, 84.685310
1645.000000, 84.540131
1646.000000, 84.588608
1647.000000, 84.401955
1648.000000, 84.475189
1649.000000, 84.354752
1650.000000, 84.388931
1651.000000, 84.490005
1652.000000, 84.446533
1653.000000, 84.384003
1654.000000, 84.323952
1655.000000, 84.265312
1656.000000, 84.230804
1657.000000, 83.946495
1658.000000, 83.823273
1659.000000, 83.616020
1660.000000, 83.279999
1661.000000, 82.958534
1662.000000, 82.626381
1663.000000, 82.210709
1664.000000, 81.712273
1665.000000, 81.259171
1666.000000, 80.785263
1667.000000, 80.333466
1668.000000, 80.035057
1669.000000, 79.891190
1670.000000, 79.836143
1671.000000, 79.605476
1672.000000, 79.854355
1673.000000, 79.858688
1674.000000, 79.952171
1675.000000, 80.041306
1676.000000, 80.246498
1677.000000, 80.371613
1678.000000, 80.438904
1679.000000, 80.467346
1680.000000, 80.471886
1681.000000, 80.390045
1682.000000, 80.260147
1683.000000, 79.991623
1684.000000, 79.847366
1685.000000, 79.649712
1686.000000, 79.381027
1687.000000, 79.243835
1688.000000, 79.136070
1689.000000, 79.180496
1690.000000, 79.153313
1691.000000, 79.208984
1692.000000, 79.174652
1693.000000, 79.336723
1694.000000, 79.330734
1695.000000, 79.389816
1696.000000, 79.327934
1697.000000, 79.259308
1698.000000, 79.123001
1699.000000, 79.234947
1700.000000, 79.283447
1701.000000, 79.402451
1702.000000, 79.743210
1703.000000, 79.807320
1704.000000, 80.093529
1705.000000, 80.398697
1706.000000, 80.651962
1707.000000, 80.816818
1708.000000, 81.134766
1709.000000, 81.180206
1710.000000, 81.338242
1711.000000, 81.508530
1712.000000, 81.587883
1713.000000, 81.818535
1714.000000, 81.841904
1715.000000, 81.979462
1716.000000, 81.943970
1717.000000, 82.068565
1718.000000, 81.990524
1719.000000, 82.022705
1720.000000, 82.059418
1721.000000, 82.179443
1722.000000, 82.227303
1723.000000, 82.285851
1724.000000, 82.423592
1725.000000, 82.365067
1726.000000, 82.467148
1727.000000, 82.511803
1728.000000, 82.543030
1729.000000, 82.520279
1730.000000, 82.478645
1731.000000, 82.537018
1732.000000, 82.376778
1733.000000, 82.358330
1734.000000, 82.352898
1735.000000, 82.368050
1736.000000, 82.382050
1737.000000, 82.375626
1738.000000, 82.272804
1739.000000, 82.313179
1740.000000, 82.368233
1741.000000, 82.386414
1742.000000, 82.492462
1743.000000, 82.601173
1744.000000, 82.568893
1745.000000, 82.655731
1746.000000, 82.764488
1747.000000, 82.575035
1748.000000, 82.770996
1749.000000, 82.768616
1750.000000, 82.691017
1751.000000, 82.503624
1752.000000, 82.593697
1753.000000, 82.475235
1754.000000, 82.459167
1755.000000, 82.396339
1756.000000, 82.306129
1757.000000, 82.237419
1758.000000, 82.130524
1759.000000, 81.922409
1760.000000, 81.778809
1761.000000, 81.741402
1762.000000, 81.672760
1763.000000, 81.532135
1764.000000, 81.346413
1765.000000, 81.249771
1766.000000, 81.186501
1767.000000, 81.062988
1768.000000, 80.949173
1769.000000, 80.958382
1770.000000, 80.780800
1771.000000, 80.831619
1772.000000, 80.853188
1773.000000, 80.890533
1774.000000, 80.910164
1775.000000, 80.799431
1776.000000, 80.815765
1777.000000, 80.872665
1778.000000, 80.886169
1779.000000, 80.939156
1780.000000, 81.090599
1781.000000, 81.051491
1782.000000, 81.012665
1783.000000, 81.122093
1784.000000, 81.131348
1785.000000, 81.086662
1786.000000, 81.225723
1787.000000, 81.205582
1788.000000, 81.328842
1789.000000, 81.383919
1790.000000, 81.328705
1791.000000, 81.443695
1792.000000, 81.417526
1793.000000, 81.565056
1794.000000, 81.619492
1795.000000, 81.719078
1796.000000, 81.841812
1797.000000, 81.850060
1798.000000, 81.905655
1799.000000, 82.035431
1800.000000, 82.057343
1801.000000, 82.151619
1802.000000, 82.263298
1803.000000, 82.393631
1804.000000, 82.497406
1805.000000, 82.514664
1806.000000, 82.602989
1807.000000, 82.755753
1808.000000, 83.020775
1809.000000, 83.077370
1810.000000, 83.080650
1811.000000, 83.175636
1812.000000, 83.293907
1813.000000, 83.440048
1814.000000, 83.588135
1815.000000, 83.580162
1816.000000, 83.737907
1817.000000, 83.825531
1818.000000, 83.883339
1819.000000, 84.114929
1820.000000, 84.188011
1821.000000, 84.298248
1822.000000, 84.326004
1823.000000, 84.544449
1824.000000, 84.614761
1825.000000, 84.630135
1826.000000, 84.696609
1827.000000, 84.686455
1828.000000, 84.840317
1829.000000, 84.956757
1830.000000, 85.072327
1831.000000, 85.036743
1832.000000, 85.253960
1833.000000, 85.279053
1834.000000, 85.441437
1835.000000, 85.436386
1836.000000, 85.525406
1837.000000, 85.615379
1838.000000, 85.546074
1839.000000, 85.604576
1840.000000, 85.767159
1841.000000, 85.747673
1842.000000, 85.735489
1843.000000, 85.725060
1844.000000, 85.732071
1845.000000, 85.779800
1846.000000, 85.755714
1847.000000, 85.707420
1848.000000, 85.885483
1849.000000, 85.785133
1850.000000, 85.855904
1851.000000, 85.727509
1852.000000, 85.648766
1853.000000, 85.729721
1854.000000, 85.611488
1855.000000, 85.652313
1856.000000, 85.589775
1857.000000, 85.576408
1858.000000, 85.501137
1859.000000, 85.481041
1860.000000, 85.347977
1861.000000, 85.335487
1862.000000, 85.264275
1863.000000, 85.260117
1864.000000, 85.062256
1865.000000, 85.079643
1866.000000, 84.995163
1867.000000, 84.879494
1868.000000, 84.772469
1869.000000, 84.688858
1870.000000, 84.625359
1871.000000, 84.480324
1872.000000, 84.417122
1873.000000, 84.345612
1874.000000, 84.259750
1875.000000, 84.156723
1876.000000, 84.167053
1877.000000, 83.902565
1878.000000, 83.926865
1879.000000, 83.809540
1880.000000, 83.711967
1881.000000, 83.700928
1882.000000, 83.583221
1883.000000, 83.419823
1884.000000, 83.312378
1885.000000, 83.304359
1886.000000, 83.132790
1887.000000, 83.133331
1888.000000, 83.094734
1889.000000, 83.026085
1890.000000, 82.880157
1891.000000, 82.762489
1892.000000, 82.716164
1893.000000, 82.709030
1894.000000, 82.573441
1895.000000, 82.431366
1896.000000, 82.304039
1897.000000, 82.379845
1898.000000, 82.201027
1899.000000, 82.262909
1900.000000, 82.159744
1901.000000, 82.032707
1902.000000, 81.951164
1903.000000, 81.980850
1904.000000, 81.898361
1905.000000, 81.865242
1906.000000, 81.775459
1907.000000, 81.817062
1908.000000, 81.814728
1909.000000, 81.784454
1910.000000, 81.746216
1911.000000, 81.714630
1912.000000, 81.716454
1913.000000, 81.652359
1914.000000, 81.719971
1915.000000, 81.729698
1916.000000, 81.691940
1917.000000, 81.691048
1918.000000, 81.754272
1919.000000, 81.781837
1920.000000, 81.682709
1921.000000, 81.720016
1922.000000, 81.830635
1923.000000, 81.676567
1924.000000, 81.854630
1925.000000, 81.863419
1926.000000, 81.801758
1927.000000, 81.848267
1928.000000, 81.849472
1929.000000, 81.865723
1930.000000, 81.848930
1931.000000, 81.963516
1932.000000, 81.953362
1933.000000, 82.067757
1934.000000, 82.006775
1935.000000, 82.087395
1936.000000, 82.016335
1937.000000, 82.195740
1938.000000, 82.149086
1939.000000, 82.188965
1940.000000, 82.259438
1941.000000, 82.202202
1942.000000, 82.392166
1943.000000, 82.398178
1944.000000, 82.380989
1945.000000, 82.415833
1946.000000, 82.530228
1947.000000, 82.512108
1948.000000, 82.544601
1949.000000, 82.668243
1950.000000, 82.680962
1951.000000, 82.667603
1952.000000, 82.724373
1953.000000, 82.731049
1954.000000, 82.810631
1955.000000, 82.806648
1956.000000, 82.830719
1957.000000, 82.883217
1958.000000, 82.898750
1959.000000, 82.933418
1960.000000, 82.884178
1961.000000, 82.894669
1962.000000, 82.917770
1963.000000, 82.939346
1964.000000, 82.915001
1965.000000, 82.913956
1966.000000, 82.954735
1967.000000, 83.024940
1968.000000, 82.930435
1969.000000, 82.903687
1970.000000, 83.049530
1971.000000, 82.974411
1972.000000, 83.004906
1973.000000, 82.891098
1974.000000, 82.997208
1975.000000, 82.950462
1976.000000, 82.948959
1977.000000, 82.901382
1978.000000, 83.024498
1979.000000, 82.958397
1980.000000, 82.937965
1981.000000, 83.022362
1982.000000, 82.877663
1983.000000, 82.880501
1984.000000, 82.894562
1985.000000, 82.852570
1986.000000, 82.799950
1987.000000, 82.763237
1988.000000, 82.744736
1989.000000, 82.754021
1990.000000, 82.693047
1991.000000, 82.652153
1992.000000, 82.571945
1993.000000, 82.474068
1994.000000, 82.508919
1995.000000, 82.446053
1996.000000, 82.364639
1997.000000, 82.341530
1998.000000, 82.313873
1999.000000, 82.332214
2000.000000, 82.190750
2001.000000, 82.126602
2002.000000, 81.993652
2003.000000, 81.920784
2004.000000, 81.998772
2005.000000, 82.012085
2006.000000, 81.832474
2007.000000, 81.894356
2008.000000, 81.728058
2009.000000, 81.745369
2010.000000, 81.619629
2011.000000, 81.583870
2012.000000, 81.540771
2013.000000, 81.521645
2014.000000, 81.542885
2015.000000, 81.422310
2016.000000, 81.415367
2017.000000, 81.332008
2018.000000, 81.259865
2019.000000, 81.265396
2020.000000, 81.125977
2021.000000, 81.151634
2022.000000, 81.151268
2023.000000, 80.926842
2024.000000, 80.997581
2025.000000, 80.940285
2026.000000, 80.958229
2027.000000, 80.900101
2028.000000, 80.751862
2029.000000, 80.856331
2030.000000, 80.729279
2031.000000, 80.687134
2032.000000, 80.568733
2033.000000, 80.618408
2034.000000, 80.550278
2035.000000, 80.548409
2036.000000, 80.374733
2037.000000, 80.394981
2038.000000, 80.342583
2039.000000, 80.259850
2040.000000, 80.132660
2041.000000, 80.306496
2042.000000, 80.209366
2043.000000, 80.189178
2044.000000, 80.123833
2045.000000, 80.051468
2046.000000, 80.118782
2047.000000, 80.136215
2048.000000, 80.053078
2049.000000, 79.966042
2050.000000, 79.995155
2051.000000, 79.967918
2052.000000, 79.988518
2053.000000, 79.883698
2054.000000, 79.913429
2055.000000, 79.884544
2056.000000, 79.911583
2057.000000, 79.920486
2058.000000, 79.904953
2059.000000, 79.882210
2060.000000, 79.842224
2061.000000, 79.723495
2062.000000, 79.761559
2063.000000, 79.686600
2064.000000, 79.701393
2065.000000, 79.761208
2066.000000, 79.640686
2067.000000, 79.588943
2068.000000, 79.586197
2069.000000, 79.566048
2070.000000, 79.515511
2071.000000, 79.440521
2072.000000, 79.463539
2073.000000, 79.401916
2074.000000, 79.375626
2075.000000, 79.334389
2076.000000, 79.343071
2077.000000, 79.373421
2078.000000, 79.283127
2079.000000, 79.210365
2080.000000, 79.181877
2081.000000, 79.146507
2082.000000, 79.102074
2083.000000, 79.104828
2084.000000, 79.106766
2085.000000, 79.048767
2086.000000, 79.039841
2087.000000, 79.050591
2088.000000, 79.024216
2089.000000, 78.985146
2090.000000, 78.889961
2091.000000, 78.912216
2092.000000, 78.858986
2093.000000, 78.954292
2094.000000, 78.770241
2095.000000, 78.844833
2096.000000, 78.755241
2097.000000, 78.757004
2098.000000, 78.743454
2099.000000, 78.688446
2100.000000, 78.656044
2101.000000, 78.616814
2102.000000, 78.581848
2103.000000, 78.532166
2104.000000, 78.466415
2105.000000, 78.368637
2106.000000, 78.239456
2107.000000, 78.234581
2108.000000, 78.212753
2109.000000, 78.187691
2110.000000, 78.047569
2111.000000, 77.862419
2112.000000, 77.897530
2113.000000, 77.750900
2114.000000, 77.653244
2115.000000, 77.451477
2116.000000, 77.488495
2117.000000, 77.184921
2118.000000, 77.129486
2119.000000, 76.932510
2120.000000, 76.937584
2121.000000, 76.767097
2122.000000, 76.566330
2123.000000, 76.385513
2124.000000, 76.160942
2125.000000, 75.970932
2126.000000, 75.732819
2127.000000, 75.399590
2128.000000, 75.010406
2129.000000, 74.646011
2130.000000, 74.132507
2131.000000, 73.582008
2132.000000, 73.241646
2133.000000, 72.799721
2134.000000, 72.509407
2135.000000, 72.156105
2136.000000, 72.096176
2137.000000, 72.036430
2138.000000, 72.070763
2139.000000, 72.308548
2140.000000, 72.356056
2141.000000, 72.672913
2142.000000, 72.803543
2143.000000, 73.004517
2144.000000, 73.208130
2145.000000, 73.351959
2146.000000, 73.345497
2147.000000, 73.477974
2148.000000, 73.385963
2149.000000, 73.282661
2150.000000, 73.162941
2151.000000, 72.931824
2152.000000, 72.677643
2153.000000, 72.274452
2154.000000, 71.884415
2155.000000, 71.467918
2156.000000, 71.098335
2157.000000, 70.597687
2158.000000, 70.133911
2159.000000, 69.717407
2160.000000, 69.312141
2161.000000, 68.972313
2162.000000, 68.757568
2163.000000, 68.703636
2164.000000, 68.854385
2165.000000, 68.917488
2166.000000, 69.238434
2167.000000, 69.620354
2168.000000, 70.103851
2169.000000, 70.607147
2170.000000, 70.977570
2171.000000, 71.518272
2172.000000, 71.849953
2173.000000, 72.121681
2174.000000, 72.391296
2175.000000, 72.532906
2176.000000, 72.753723
2177.000000, 72.817368
2178.000000, 72.759995
2179.000000, 72.762428
2180.000000, 72.718376
2181.000000, 72.623352
2182.000000, 72.626518
2183.000000, 72.411819
2184.000000, 72.451454
2185.000000, 72.138802
2186.000000, 72.045860
2187.000000, 71.906944
2188.000000, 71.827087
2189.000000, 71.774719
2190.000000, 71.710678
2191.000000, 71.634445
2192.000000, 71.562645
2193.000000, 71.511551
2194.000000, 71.365677
2195.000000, 71.369690
2196.000000, 71.253418
2197.000000, 71.208473
2198.000000, 71.028297
2199.000000, 70.768829
2200.000000, 70.683083
2201.000000, 70.438713
2202.000000, 70.246902
2203.000000, 69.976112
2204.000000, 69.849144
2205.000000, 69.602669
2206.000000, 69.592651
2207.000000, 69.567673
2208.000000, 69.549171
2209.000000, 69.619156
2210.000000, 69.734161
2211.000000, 69.916046
2212.000000, 70.057335
2213.000000, 70.431488
2214.000000, 70.557800
2215.000000, 70.965439
2216.000000, 71.215874
2217.000000, 71.492973
2218.000000, 71.634293
2219.000000, 71.886047
2220.000000, 71.930580
2221.000000, 72.103874
2222.000000, 72.176933
2223.000000, 72.090034
2224.000000, 72.082153
2225.000000, 72.048393
2226.000000, 71.977791
2227.000000, 71.817261
2228.000000, 71.780357
2229.000000, 71.650505
2230.000000, 71.581161
2231.000000, 71.551529
2232.000000, 71.574310
2233.000000, 71.423599
2234.000000, 71.378448
2235.000000, 71.418915
2236.000000, 71.417145
2237.000000, 71.405998
2238.000000, 71.283928
2239.000000, 71.299294
2240.000000, 71.290840
2241.000000, 71.194962
2242.000000, 71.116455
2243.000000, 71.099602
2244.000000, 70.915184
2245.000000, 70.719284
2246.000000, 70.544075
2247.000000, 70.358589
2248.000000, 70.182014
2249.000000, 69.903290
2250.000000, 69.616928
2251.000000, 69.326019
2252.000000, 68.900703
2253.000000, 68.552933
2254.000000, 68.216774
2255.000000, 67.853317
2256.000000, 67.435020
2257.000000, 67.044632
2258.000000, 66.542748
2259.000000, 66.095398
2260.000000, 65.577217
2261.000000, 65.035400
2262.000000, 64.628944
2263.000000, 64.086052
2264.000000, 63.508881
2265.000000, 62.979401
2266.000000, 62.459957
2267.000000, 61.991638
2268.000000, 61.444534
2269.000000, 60.900688
2270.000000, 60.430943
2271.000000, 60.044312
2272.000000, 59.713024
2273.000000, 59.305649
2274.000000, 59.251785
2275.000000, 59.088783
2276.000000, 58.892292
2277.000000, 58.840500
2278.000000, 58.724392
2279.000000, 58.729248
2280.000000, 58.554916
2281.000000, 58.477085
2282.000000, 58.318668
2283.000000, 58.205135
2284.000000, 57.980518
2285.000000, 57.739079
2286.000000, 57.557453
2287.000000, 57.267738
2288.000000, 57.042736
2289.000000, 56.918247
2290.000000, 56.660675
2291.000000, 56.464069
2292.000000, 56.320339
2293.000000, 56.095253
2294.000000, 55.876045
2295.000000, 55.619789
2296.000000, 55.473595
2297.000000, 55.264408
2298.000000, 55.140232
2299.000000, 54.960316
2300.000000, 54.883419
2301.000000, 54.724335
2302.000000, 54.622032
2303.000000, 54.605968
2304.000000, 54.565384
2305.000000, 54.454144
2306.000000, 54.322392
2307.000000, 54.276554
2308.000000, 54.096241
2309.000000, 53.871441
2310.000000, 53.692329
2311.000000, 53.463882
2312.000000, 53.271961
2313.000000, 53.224140
2314.000000, 53.136463
2315.000000, 53.117554
2316.000000, 53.283340
2317.000000, 53.411896
2318.000000, 53.629101
2319.000000, 54.035343
2320.000000, 54.405338
2321.000000, 54.842503
2322.000000, 55.212845
2323.000000, 55.570663
2324.000000, 55.950104
2325.000000, 56.218277
2326.000000, 56.537193
2327.000000, 56.749706
2328.000000, 57.085777
2329.000000, 57.296474
2330.000000, 57.428856
2331.000000, 57.774460
2332.000000, 57.912033
2333.000000, 58.039612
2334.000000, 58.271484
2335.000000, 58.380287
2336.000000, 58.467613
2337.000000, 58.568115
2338.000000, 58.626850
2339.000000, 58.725090
2340.000000, 58.749683
2341.000000, 58.722996
2342.000000, 58.604664
2343.000000, 58.622665
2344.000000, 58.415909
2345.000000, 58.417976
2346.000000, 58.361584
2347.000000, 58.252628
2348.000000, 58.071274
2349.000000, 58.070530
2350.000000, 58.039558
2351.000000, 58.041946
2352.000000, 58.068569
2353.000000, 57.977932
2354.000000, 58.007835
2355.000000, 58.063232
2356.000000, 57.951355
2357.000000, 57.857712
2358.000000, 57.821339
2359.000000, 57.690311
2360.000000, 57.591202
2361.000000, 57.548851
2362.000000, 57.321529
2363.000000, 57.137878
2364.000000, 57.125324
2365.000000, 56.980057
2366.000000, 56.977886
2367.000000, 56.917702
2368.000000, 56.871151
2369.000000, 56.848621
2370.000000, 56.847393
2371.000000, 56.778908
2372.000000, 56.759144
2373.000000, 56.787182
2374.000000, 56.763428
2375.000000, 56.801479
2376.000000, 56.826561
2377.000000, 56.734528
2378.000000, 56.727856
2379.000000, 56.731544
2380.000000, 56.640041
2381.000000, 56.613930
2382.000000, 56.582535
2383.000000, 56.444462
2384.000000, 56.360233
2385.000000, 56.229340
2386.000000, 56.025169
2387.000000, 56.035530
2388.000000, 55.917816
2389.000000, 55.814777
2390.000000, 55.696983
2391.000000, 55.654030
2392.000000, 55.472809
2393.000000, 55.439220
2394.000000, 55.368469
2395.000000, 55.207050
2396.000000, 55.104954
2397.000000, 55.039383
2398.000000, 54.826145
2399.000000, 54.756992
2400.000000, 54.758961
2401.000000, 54.625847
2402.000000, 54.606396
2403.000000, 54.757637
2404.000000, 54.762077
2405.000000, 54.823105
2406.000000, 55.034004
2407.000000, 55.206455
2408.000000, 55.360012
2409.000000, 55.601292
2410.000000, 55.764751
2411.000000, 55.965759
2412.000000, 56.251534
2413.000000, 56.377869
2414.000000, 56.463634
2415.000000, 56.636150
2416.000000, 56.817524
2417.000000, 56.904793
2418.000000, 57.007565
2419.000000, 57.168823
2420.000000, 57.160686
2421.000000, 57.286938
2422.000000, 57.356232
2423.000000, 57.472725
2424.000000, 57.448872
2425.000000, 57.519032
2426.000000, 57.532204
2427.000000, 57.633114
2428.000000, 57.688324
2429.000000, 57.631729
2430.000000, 57.554317
2431.000000, 57.651436
2432.000000, 57.476761
2433.000000, 57.434731
2434.000000, 57.366447
2435.000000, 57.192909
2436.000000, 56.958885
2437.000000, 56.837261
2438.000000, 56.588791
2439.000000, 56.265728
2440.000000, 55.973274
2441.000000, 55.627930
2442.000000, 55.084896
2443.000000, 54.662220
2444.000000, 54.155403
2445.000000, 53.675854
2446.000000, 53.085960
2447.000000, 52.668625
2448.000000, 52.054031
2449.000000, 51.543583
2450.000000, 51.055763
2451.000000, 50.507374
2452.000000, 50.059479
2453.000000, 49.574848
2454.000000, 49.182693
2455.000000, 48.730782
2456.000000, 48.345421
2457.000000, 47.986114
2458.000000, 47.709377
2459.000000, 47.467266
2460.000000, 47.384171
2461.000000, 47.315945
2462.000000, 47.438641
2463.000000, 47.599529
2464.000000, 47.857868
2465.000000, 48.279129
2466.000000, 48.756619
2467.000000, 49.205822
2468.000000, 49.699135
2469.000000, 50.351131
2470.000000, 50.871361
2471.000000, 51.384968
2472.000000, 51.907463
2473.000000, 52.385593
2474.000000, 52.815990
2475.000000, 53.316219
2476.000000, 53.672958
2477.000000, 54.024460
2478.000000, 54.383244
2479.000000, 54.671329
2480.000000, 54.856670
2481.000000, 54.964684
2482.000000, 55.121387
2483.000000, 55.238960
2484.000000, 55.217831
2485.000000, 55.248512
2486.000000, 55.207710
2487.000000, 55.132557
2488.000000, 55.151443
2489.000000, 55.039986
2490.000000, 55.009399
2491.000000, 54.986961
2492.000000, 54.967361
2493.000000, 54.862850
2494.000000, 54.746098
2495.000000, 54.743923
2496.000000, 54.653435
2497.000000, 54.494404
2498.000000, 54.478573
2499.000000, 54.461975
2500.000000, 54.252159
2501.000000, 54.150581
2502.000000, 54.002808
2503.000000, 53.880287
2504.000000, 53.712948
2505.000000, 53.641914
2506.000000, 53.443398
2507.000000, 53.301250
2508.000000, 53.247189
2509.000000, 53.196259
2510.000000, 53.023521
2511.000000, 53.072136
2512.000000, 53.061531
2513.000000, 52.994560
2514.000000, 52.998207
2515.000000, 53.127705
2516.000000, 53.141899
2517.000000, 53.265465
2518.000000, 53.362923
2519.000000, 53.543385
2520.000000, 53.650398
2521.000000, 53.842892
2522.000000, 54.043877
2523.000000, 54.202888
2524.000000, 54.397320
2525.000000, 54.567272
2526.000000, 54.808746
2527.000000, 54.966980
2528.000000, 55.132015
2529.000000, 55.332554
2530.000000, 55.517937
2531.000000, 55.672962
2532.000000, 55.993660
2533.000000, 55.974895
2534.000000, 56.102745
2535.000000, 56.239944
2536.000000, 56.397110
2537.000000, 56.356640
2538.000000, 56.524097
2539.000000, 56.510872
2540.000000, 56.526535
2541.000000, 56.522190
2542.000000, 56.577785
2543.000000, 56.454235
2544.000000, 56.423378
2545.000000, 56.360806
2546.000000, 56.343872
2547.000000, 56.269348
2548.000000, 56.208031
2549.000000, 56.062931
2550.000000, 55.943024
2551.000000, 55.854752
2552.000000, 55.776043
2553.000000, 55.694111
2554.000000, 55.659912
2555.000000, 55.582409
2556.000000, 55.606758
2557.000000, 55.618973
2558.000000, 55.590542
2559.000000, 55.626095
2560.000000, 55.570293
2561.000000, 55.595772
2562.000000, 55.721451
2563.000000, 55.617722
2564.000000, 55.672997
2565.000000, 55.736870
2566.000000, 55.834007
2567.000000, 55.825363
2568.000000, 55.953026
2569.000000, 55.955742
2570.000000, 55.990730
2571.000000, 55.967457
2572.000000, 56.052196
2573.000000, 56.051666
2574.000000, 55.997849
2575.000000, 56.049873
2576.000000, 56.096371
2577.000000, 56.086044
2578.000000, 56.128277
2579.000000, 56.214802
2580.000000, 56.337769
2581.000000, 56.391174
2582.000000, 56.532341
2583.000000, 56.702297
2584.000000, 56.844563
2585.000000, 56.903152
2586.000000, 57.198315
2587.000000, 57.393284
2588.000000, 57.541187
2589.000000, 57.700920
2590.000000, 57.882977
2591.000000, 58.032001
2592.000000, 58.157463
2593.000000, 58.356182
2594.000000, 58.423077
2595.000000, 58.583729
2596.000000, 58.732311
2597.000000, 58.738964
2598.000000, 58.890427
2599.000000, 58.997654
2600.000000, 59.080345
