# Wavelength  (nm), Transmission (%)
200.000000, 0.000072
201.000000, 0.000051
202.000000, 0.000046
203.000000, 0.000044
204.000000, 0.000040
205.000000, 0.000036
206.000000, 0.000033
207.000000, 0.000027
208.000000, 0.000025
209.000000, 0.000030
210.000000, 0.000025
211.000000, 0.000027
212.000000, 0.000031
213.000000, 0.000033
214.000000, 0.000038
215.000000, 0.000040
216.000000, 0.000044
217.000000, 0.000048
218.000000, 0.000048
219.000000, 0.000045
220.000000, 0.000037
221.000000, 0.000031
222.000000, 0.000023
223.000000, 0.000018
224.000000, 0.000012
225.000000, 0.000002
226.000000, 0.000001
227.000000, 0.000002
228.000000, 0.000006
229.000000, 0.000009
230.000000, 0.000004
231.000000, 0.000004
232.000000, 0.000005
233.000000, 0.000002
234.000000, 0.000002
235.000000, 0.000003
236.000000, 0.000007
237.000000, 0.000010
238.000000, 0.000006
239.000000, 0.000003
240.000000, 0.000003
241.000000, 0.000001
242.000000, 0.000003
243.000000, 0.000012
244.000000, 0.000009
245.000000, 0.000009
246.000000, 0.000010
247.000000, 0.000005
248.000000, 0.000010
249.000000, 0.000008
250.000000, 0.000002
251.000000, 0.000008
252.000000, 0.000011
253.000000, 0.000009
254.000000, 0.000010
255.000000, 0.000007
256.000000, 0.000010
257.000000, 0.000011
258.000000, 0.000016
259.000000, 0.000012
260.000000, 0.000008
261.000000, 0.000006
262.000000, 0.000009
263.000000, 0.000005
264.000000, 0.000009
265.000000, 0.000006
266.000000, 0.000002
267.000000, 0.000014
268.000000, 0.000014
269.000000, 0.000012
270.000000, 0.000008
271.000000, 0.000000
272.000000, 0.000007
273.000000, 0.000011
274.000000, 0.000008
275.000000, 0.000003
276.000000, 0.000001
277.000000, 0.000007
278.000000, 0.000024
279.000000, 0.000035
280.000000, 0.000034
281.000000, 0.000025
282.000000, 0.000025
283.000000, 0.000021
284.000000, 0.000027
285.000000, 0.000024
286.000000, 0.000019
287.000000, 0.000014
288.000000, 0.000015
289.000000, 0.000015
290.000000, 0.000022
291.000000, 0.000025
292.000000, 0.000030
293.000000, 0.000020
294.000000, 0.000014
295.000000, 0.000013
296.000000, 0.000017
297.000000, 0.000016
298.000000, 0.000021
299.000000, 0.000018
300.000000, 0.000010
301.000000, 0.000017
302.000000, 0.000024
303.000000, 0.000027
304.000000, 0.000027
305.000000, 0.000034
306.000000, 0.000026
307.000000, 0.000030
308.000000, 0.000036
309.000000, 0.000036
310.000000, 0.000029
311.000000, 0.000023
312.000000, 0.000015
313.000000, 0.000001
314.000000, 0.000005
315.000000, 0.000016
316.000000, 0.000023
317.000000, 0.000023
318.000000, 0.000026
319.000000, 0.000028
320.000000, 0.000031
321.000000, 0.000019
322.000000, 0.000016
323.000000, 0.000016
324.000000, 0.000019
325.000000, 0.000028
326.000000, 0.000018
327.000000, 0.000011
328.000000, 0.000005
329.000000, 0.000013
330.000000, 0.000012
331.000000, 0.000014
332.000000, 0.000011
333.000000, 0.000002
334.000000, 0.000003
335.000000, 0.000009
336.000000, 0.000010
337.000000, 0.000010
338.000000, 0.000010
339.000000, 0.000002
340.000000, 0.000003
341.000000, 0.000004
342.000000, 0.000008
343.000000, 0.000009
344.000000, 0.000006
345.000000, 0.000000
346.000000, 0.000008
347.000000, 0.000005
348.000000, 0.000004
349.000000, 0.000006
350.000000, 0.000006
351.000000, 0.000010
352.000000, 0.000010
353.000000, 0.000009
354.000000, 0.000003
355.000000, 0.000004
356.000000, 0.000003
357.000000, 0.000009
358.000000, 0.000016
359.000000, 0.000021
360.000000, 0.000022
361.000000, 0.000025
362.000000, 0.000029
363.000000, 0.000039
364.000000, 0.000044
365.000000, 0.000053
366.000000, 0.000056
367.000000, 0.000064
368.000000, 0.000074
369.000000, 0.000088
370.000000, 0.000085
371.000000, 0.000073
372.000000, 0.000064
373.000000, 0.000049
374.000000, 0.000040
375.000000, 0.000027
376.000000, 0.000010
377.000000, 0.000011
378.000000, 0.000011
379.000000, 0.000006
380.000000, 0.000003
381.000000, 0.000004
382.000000, 0.000009
383.000000, 0.000009
384.000000, 0.000006
385.000000, 0.000003
386.000000, 0.000001
387.000000, 0.000005
388.000000, 0.000008
389.000000, 0.000007
390.000000, 0.000006
391.000000, 0.000005
392.000000, 0.000004
393.000000, 0.000008
394.000000, 0.000014
395.000000, 0.000014
396.000000, 0.000015
397.000000, 0.000011
398.000000, 0.000008
399.000000, 0.000008
400.000000, 0.000010
401.000000, 0.000009
402.000000, 0.000008
403.000000, 0.000005
404.000000, 0.000001
405.000000, 0.000004
406.000000, 0.000002
407.000000, 0.000000
408.000000, 0.000001
409.000000, 0.000003
410.000000, 0.000006
411.000000, 0.000003
412.000000, 0.000001
413.000000, 0.000009
414.000000, 0.000009
415.000000, 0.000006
416.000000, 0.000003
417.000000, 0.000002
418.000000, 0.000002
419.000000, 0.000002
420.000000, 0.000000
421.000000, 0.000005
422.000000, 0.000010
423.000000, 0.000010
424.000000, 0.000006
425.000000, 0.000004
426.000000, 0.000004
427.000000, 0.000006
428.000000, 0.000007
429.000000, 0.000003
430.000000, 0.000003
431.000000, 0.000007
432.000000, 0.000006
433.000000, 0.000003
434.000000, 0.000001
435.000000, 0.000001
436.000000, 0.000000
437.000000, 0.000002
438.000000, 0.000007
439.000000, 0.000009
440.000000, 0.000010
441.000000, 0.000008
442.000000, 0.000004
443.000000, 0.000000
444.000000, 0.000002
445.000000, 0.000002
446.000000, 0.000000
447.000000, 0.000001
448.000000, 0.000002
449.000000, 0.000006
450.000000, 0.000008
451.000000, 0.000005
452.000000, 0.000003
453.000000, 0.000004
454.000000, 0.000007
455.000000, 0.000008
456.000000, 0.000008
457.000000, 0.000004
458.000000, 0.000001
459.000000, 0.000003
460.000000, 0.000002
461.000000, 0.000002
462.000000, 0.000002
463.000000, 0.000007
464.000000, 0.000011
465.000000, 0.000013
466.000000, 0.000015
467.000000, 0.000016
468.000000, 0.000019
469.000000, 0.000024
470.000000, 0.000027
471.000000, 0.000028
472.000000, 0.000030
473.000000, 0.000030
474.000000, 0.000029
475.000000, 0.000032
476.000000, 0.000034
477.000000, 0.000034
478.000000, 0.000035
479.000000, 0.000033
480.000000, 0.000029
481.000000, 0.000032
482.000000, 0.000036
483.000000, 0.000034
484.000000, 0.000032
485.000000, 0.000031
486.000000, 0.000028
487.000000, 0.000029
488.000000, 0.000031
489.000000, 0.000028
490.000000, 0.000024
491.000000, 0.000021
492.000000, 0.000019
493.000000, 0.000019
494.000000, 0.000021
495.000000, 0.000021
496.000000, 0.000018
497.000000, 0.000015
498.000000, 0.000013
499.000000, 0.000013
500.000000, 0.000014
501.000000, 0.000012
502.000000, 0.000007
503.000000, 0.000005
504.000000, 0.000008
505.000000, 0.000014
506.000000, 0.000017
507.000000, 0.000017
508.000000, 0.000018
509.000000, 0.000020
510.000000, 0.000026
511.000000, 0.000033
512.000000, 0.000035
513.000000, 0.000035
514.000000, 0.000041
515.000000, 0.000048
516.000000, 0.000053
517.000000, 0.000057
518.000000, 0.000060
519.000000, 0.000058
520.000000, 0.000057
521.000000, 0.000056
522.000000, 0.000054
523.000000, 0.000054
524.000000, 0.000055
525.000000, 0.000054
526.000000, 0.000050
527.000000, 0.000048
528.000000, 0.000052
529.000000, 0.000056
530.000000, 0.000060
531.000000, 0.000060
532.000000, 0.000055
533.000000, 0.000054
534.000000, 0.000059
535.000000, 0.000065
536.000000, 0.000068
537.000000, 0.000068
538.000000, 0.000062
539.000000, 0.000059
540.000000, 0.000064
541.000000, 0.000069
542.000000, 0.000070
543.000000, 0.000067
544.000000, 0.000061
545.000000, 0.000057
546.000000, 0.000060
547.000000, 0.000064
548.000000, 0.000065
549.000000, 0.000063
550.000000, 0.000059
551.000000, 0.000056
552.000000, 0.000058
553.000000, 0.000058
554.000000, 0.000055
555.000000, 0.000053
556.000000, 0.000047
557.000000, 0.000043
558.000000, 0.000043
559.000000, 0.000041
560.000000, 0.000041
561.000000, 0.000044
562.000000, 0.000043
563.000000, 0.000040
564.000000, 0.000041
565.000000, 0.000044
566.000000, 0.000048
567.000000, 0.000051
568.000000, 0.000053
569.000000, 0.000052
570.000000, 0.000051
571.000000, 0.000052
572.000000, 0.000053
573.000000, 0.000053
574.000000, 0.000051
575.000000, 0.000049
576.000000, 0.000045
577.000000, 0.000044
578.000000, 0.000045
579.000000, 0.000048
580.000000, 0.000049
581.000000, 0.000045
582.000000, 0.000045
583.000000, 0.000044
584.000000, 0.000048
585.000000, 0.000051
586.000000, 0.000053
587.000000, 0.000052
588.000000, 0.000050
589.000000, 0.000051
590.000000, 0.000054
591.000000, 0.000058
592.000000, 0.000061
593.000000, 0.000063
594.000000, 0.000062
595.000000, 0.000064
596.000000, 0.000071
597.000000, 0.000077
598.000000, 0.000076
599.000000, 0.000077
600.000000, 0.000075
601.000000, 0.000074
602.000000, 0.000081
603.000000, 0.000085
604.000000, 0.000087
605.000000, 0.000088
606.000000, 0.000088
607.000000, 0.000089
608.000000, 0.000094
609.000000, 0.000100
610.000000, 0.000100
611.000000, 0.000101
612.000000, 0.000098
613.000000, 0.000098
614.000000, 0.000104
615.000000, 0.000111
616.000000, 0.000118
617.000000, 0.000121
618.000000, 0.000123
619.000000, 0.000125
620.000000, 0.000132
621.000000, 0.000138
622.000000, 0.000140
623.000000, 0.000141
624.000000, 0.000142
625.000000, 0.000147
626.000000, 0.000152
627.000000, 0.000158
628.000000, 0.000160
629.000000, 0.000163
630.000000, 0.000172
631.000000, 0.000179
632.000000, 0.000183
633.000000, 0.000186
634.000000, 0.000188
635.000000, 0.000190
636.000000, 0.000196
637.000000, 0.000203
638.000000, 0.000207
639.000000, 0.000213
640.000000, 0.000218
641.000000, 0.000220
642.000000, 0.000232
643.000000, 0.000245
644.000000, 0.000257
645.000000, 0.000265
646.000000, 0.000273
647.000000, 0.000279
648.000000, 0.000293
649.000000, 0.000310
650.000000, 0.000323
651.000000, 0.000335
652.000000, 0.000350
653.000000, 0.000365
654.000000, 0.000386
655.000000, 0.000408
656.000000, 0.000429
657.000000, 0.000450
658.000000, 0.000478
659.000000, 0.000500
660.000000, 0.000525
661.000000, 0.000557
662.000000, 0.000589
663.000000, 0.000624
664.000000, 0.000665
665.000000, 0.000703
666.000000, 0.000740
667.000000, 0.000790
668.000000, 0.000844
669.000000, 0.000906
670.000000, 0.000968
671.000000, 0.001035
672.000000, 0.001103
673.000000, 0.001184
674.000000, 0.001275
675.000000, 0.001372
676.000000, 0.001470
677.000000, 0.001576
678.000000, 0.001692
679.000000, 0.001818
680.000000, 0.001959
681.000000, 0.002103
682.000000, 0.002258
683.000000, 0.002417
684.000000, 0.002590
685.000000, 0.002772
686.000000, 0.002959
687.000000, 0.003152
688.000000, 0.003359
689.000000, 0.003568
690.000000, 0.003786
691.000000, 0.004018
692.000000, 0.004260
693.000000, 0.004507
694.000000, 0.004764
695.000000, 0.005027
696.000000, 0.005293
697.000000, 0.005576
698.000000, 0.005860
699.000000, 0.006147
700.000000, 0.006442
701.000000, 0.006751
702.000000, 0.007077
703.000000, 0.007401
704.000000, 0.007729
705.000000, 0.008074
706.000000, 0.008420
707.000000, 0.008785
708.000000, 0.009154
709.000000, 0.009515
710.000000, 0.009880
711.000000, 0.010264
712.000000, 0.010653
713.000000, 0.011063
714.000000, 0.011476
715.000000, 0.011884
716.000000, 0.012300
717.000000, 0.012731
718.000000, 0.013170
719.000000, 0.013626
720.000000, 0.014094
721.000000, 0.014550
722.000000, 0.015016
723.000000, 0.015503
724.000000, 0.015990
725.000000, 0.016508
726.000000, 0.017023
727.000000, 0.017537
728.000000, 0.018055
729.000000, 0.018589
730.000000, 0.019152
731.000000, 0.019724
732.000000, 0.020317
733.000000, 0.020892
734.000000, 0.021483
735.000000, 0.022084
736.000000, 0.022699
737.000000, 0.023342
738.000000, 0.023985
739.000000, 0.024624
740.000000, 0.025296
741.000000, 0.025990
742.000000, 0.026687
743.000000, 0.027410
744.000000, 0.028168
745.000000, 0.028899
746.000000, 0.029625
747.000000, 0.030400
748.000000, 0.031183
749.000000, 0.031981
750.000000, 0.032839
751.000000, 0.033654
752.000000, 0.034470
753.000000, 0.035304
754.000000, 0.036195
755.000000, 0.037102
756.000000, 0.037994
757.000000, 0.038879
758.000000, 0.039756
759.000000, 0.040706
760.000000, 0.041686
761.000000, 0.042712
762.000000, 0.043763
763.000000, 0.044766
764.000000, 0.045783
765.000000, 0.046823
766.000000, 0.047891
767.000000, 0.048990
768.000000, 0.050066
769.000000, 0.051137
770.000000, 0.052210
771.000000, 0.053333
772.000000, 0.054485
773.000000, 0.055694
774.000000, 0.056925
775.000000, 0.058116
776.000000, 0.059312
777.000000, 0.060545
778.000000, 0.061812
779.000000, 0.063128
780.000000, 0.064447
781.000000, 0.065725
782.000000, 0.067002
783.000000, 0.068297
784.000000, 0.069659
785.000000, 0.071055
786.000000, 0.072397
787.000000, 0.073712
788.000000, 0.075070
789.000000, 0.076503
790.000000, 0.077926
791.000000, 0.079396
792.000000, 0.080908
793.000000, 0.082364
794.000000, 0.083811
795.000000, 0.085309
796.000000, 0.086803
797.000000, 0.088371
798.000000, 0.089925
799.000000, 0.091442
800.000000, 0.092935
801.000000, 0.094522
802.000000, 0.096143
803.000000, 0.097733
804.000000, 0.099341
805.000000, 0.100913
806.000000, 0.102562
807.000000, 0.104284
808.000000, 0.105946
809.000000, 0.107589
810.000000, 0.109310
811.000000, 0.111038
812.000000, 0.112835
813.000000, 0.114636
814.000000, 0.116352
815.000000, 0.118052
816.000000, 0.119814
817.000000, 0.121633
818.000000, 0.123444
819.000000, 0.125308
820.000000, 0.127084
821.000000, 0.128793
822.000000, 0.130584
823.000000, 0.132368
824.000000, 0.134287
825.000000, 0.136123
826.000000, 0.137797
827.000000, 0.139534
828.000000, 0.141301
829.000000, 0.143169
830.000000, 0.145201
831.000000, 0.147173
832.000000, 0.148985
833.000000, 0.150849
834.000000, 0.152822
835.000000, 0.154764
836.000000, 0.156788
837.000000, 0.158704
838.000000, 0.160495
839.000000, 0.162347
840.000000, 0.164236
841.000000, 0.166199
842.000000, 0.168220
843.000000, 0.170140
844.000000, 0.171984
845.000000, 0.173849
846.000000, 0.175649
847.000000, 0.177586
848.000000, 0.179691
849.000000, 0.181583
850.000000, 0.183426
851.000000, 0.185262
852.000000, 0.187041
853.000000, 0.188876
854.000000, 0.191105
855.000000, 0.193859
856.000000, 0.196503
857.000000, 0.198197
858.000000, 0.199491
859.000000, 0.201002
860.000000, 0.202702
861.000000, 0.204621
862.000000, 0.206383
863.000000, 0.207469
864.000000, 0.208230
865.000000, 0.210300
866.000000, 0.213105
867.000000, 0.215627
868.000000, 0.217990
869.000000, 0.219772
870.000000, 0.221062
871.000000, 0.222828
872.000000, 0.225416
873.000000, 0.228010
874.000000, 0.230432
875.000000, 0.232106
876.000000, 0.233229
877.000000, 0.234785
878.000000, 0.236788
879.000000, 0.238617
880.000000, 0.240280
881.000000, 0.242210
882.000000, 0.244204
883.000000, 0.246603
884.000000, 0.248813
885.000000, 0.250722
886.000000, 0.252808
887.000000, 0.255222
888.000000, 0.257584
889.000000, 0.259150
890.000000, 0.259826
891.000000, 0.260676
892.000000, 0.262715
893.000000, 0.265399
894.000000, 0.267374
895.000000, 0.268500
896.000000, 0.269759
897.000000, 0.271286
898.000000, 0.272675
899.000000, 0.274138
900.000000, 0.275750
901.000000, 0.277789
902.000000, 0.280597
903.000000, 0.282658
904.000000, 0.282984
905.000000, 0.283585
906.000000, 0.286696
907.000000, 0.291028
908.000000, 0.293874
909.000000, 0.294465
910.000000, 0.294521
911.000000, 0.296566
912.000000, 0.300940
913.000000, 0.304303
914.000000, 0.304600
915.000000, 0.304446
916.000000, 0.306461
917.000000, 0.310223
918.000000, 0.313208
919.000000, 0.314150
920.000000, 0.314564
921.000000, 0.316474
922.000000, 0.319975
923.000000, 0.323126
924.000000, 0.324508
925.000000, 0.325695
926.000000, 0.327744
927.000000, 0.330756
928.000000, 0.332885
929.000000, 0.334840
930.000000, 0.337702
931.000000, 0.339795
932.000000, 0.340647
933.000000, 0.340707
934.000000, 0.341860
935.000000, 0.344675
936.000000, 0.349034
937.000000, 0.352080
938.000000, 0.352681
939.000000, 0.352970
940.000000, 0.356072
941.000000, 0.361041
942.000000, 0.364251
943.000000, 0.364853
944.000000, 0.365339
945.000000, 0.368075
946.000000, 0.371798
947.000000, 0.374975
948.000000, 0.376203
949.000000, 0.377533
950.000000, 0.381455
951.000000, 0.386045
952.000000, 0.388059
953.000000, 0.387915
954.000000, 0.389065
955.000000, 0.392099
956.000000, 0.397446
957.000000, 0.401138
958.000000, 0.401441
959.000000, 0.401638
960.000000, 0.404813
961.000000, 0.408473
962.000000, 0.410925
963.000000, 0.414547
964.000000, 0.416975
965.000000, 0.418505
966.000000, 0.421367
967.000000, 0.426227
968.000000, 0.429742
969.000000, 0.432038
970.000000, 0.434179
971.000000, 0.436303
972.000000, 0.438222
973.000000, 0.441044
974.000000, 0.445981
975.000000, 0.449036
976.000000, 0.450888
977.000000, 0.454258
978.000000, 0.458908
979.000000, 0.462039
980.000000, 0.464284
981.000000, 0.466546
982.000000, 0.468931
983.000000, 0.472142
984.000000, 0.475768
985.000000, 0.478582
986.000000, 0.480612
987.000000, 0.484893
988.000000, 0.489843
989.000000, 0.493827
990.000000, 0.495241
991.000000, 0.496167
992.000000, 0.500170
993.000000, 0.504745
994.000000, 0.508753
995.000000, 0.509457
996.000000, 0.510300
997.000000, 0.514779
998.000000, 0.519697
999.000000, 0.524251
1000.000000, 0.526101
1001.000000, 0.528347
1002.000000, 0.533354
1003.000000, 0.539336
1004.000000, 0.544856
1005.000000, 0.546823
1006.000000, 0.548963
1007.000000, 0.554027
1008.000000, 0.559712
1009.000000, 0.564215
1010.000000, 0.565488
1011.000000, 0.565939
1012.000000, 0.567829
1013.000000, 0.573881
1014.000000, 0.580008
1015.000000, 0.582596
1016.000000, 0.583979
1017.000000, 0.584822
1018.000000, 0.588178
1019.000000, 0.595311
1020.000000, 0.601828
1021.000000, 0.604319
1022.000000, 0.606004
1023.000000, 0.608518
1024.000000, 0.615146
1025.000000, 0.622974
1026.000000, 0.628704
1027.000000, 0.630994
1028.000000, 0.632644
1029.000000, 0.635199
1030.000000, 0.642230
1031.000000, 0.648872
1032.000000, 0.651495
1033.000000, 0.653950
1034.000000, 0.656745
1035.000000, 0.660727
1036.000000, 0.668307
1037.000000, 0.675764
1038.000000, 0.679420
1039.000000, 0.682628
1040.000000, 0.685576
1041.000000, 0.688059
1042.000000, 0.691668
1043.000000, 0.700156
1044.000000, 0.704994
1045.000000, 0.709589
1046.000000, 0.713626
1047.000000, 0.718237
1048.000000, 0.723292
1049.000000, 0.728337
1050.000000, 0.732720
1051.000000, 0.737031
1052.000000, 0.742396
1053.000000, 0.746202
1054.000000, 0.750311
1055.000000, 0.754317
1056.000000, 0.760040
1057.000000, 0.765656
1058.000000, 0.770389
1059.000000, 0.770711
1060.000000, 0.773602
1061.000000, 0.779620
1062.000000, 0.786241
1063.000000, 0.792658
1064.000000, 0.797879
1065.000000, 0.802464
1066.000000, 0.805753
1067.000000, 0.810856
1068.000000, 0.818890
1069.000000, 0.825948
1070.000000, 0.829501
1071.000000, 0.834293
1072.000000, 0.837364
1073.000000, 0.844009
1074.000000, 0.857315
1075.000000, 0.866776
1076.000000, 0.871203
1077.000000, 0.872596
1078.000000, 0.876326
1079.000000, 0.879757
1080.000000, 0.885300
1081.000000, 0.895471
1082.000000, 0.900461
1083.000000, 0.906216
1084.000000, 0.910049
1085.000000, 0.915867
1086.000000, 0.920921
1087.000000, 0.925878
1088.000000, 0.932896
1089.000000, 0.938723
1090.000000, 0.945234
1091.000000, 0.951090
1092.000000, 0.958396
1093.000000, 0.965123
1094.000000, 0.974134
1095.000000, 0.981407
1096.000000, 0.985632
1097.000000, 0.986538
1098.000000, 0.993762
1099.000000, 1.001237
1100.000000, 1.009799
1101.000000, 1.019068
1102.000000, 1.027508
1103.000000, 1.037184
1104.000000, 1.047735
1105.000000, 1.059380
1106.000000, 1.063154
1107.000000, 1.068851
1108.000000, 1.072120
1109.000000, 1.076602
1110.000000, 1.082368
1111.000000, 1.089031
1112.000000, 1.097420
1113.000000, 1.101807
1114.000000, 1.104243
1115.000000, 1.103590
1116.000000, 1.102541
1117.000000, 1.103863
1118.000000, 1.113594
1119.000000, 1.132475
1120.000000, 1.147897
1121.000000, 1.158688
1122.000000, 1.159608
1123.000000, 1.157968
1124.000000, 1.165432
1125.000000, 1.181526
1126.000000, 1.192073
1127.000000, 1.187404
1128.000000, 1.182826
1129.000000, 1.183677
1130.000000, 1.199900
1131.000000, 1.225468
1132.000000, 1.242553
1133.000000, 1.247690
1134.000000, 1.251994
1135.000000, 1.264830
1136.000000, 1.279354
1137.000000, 1.293943
1138.000000, 1.305130
1139.000000, 1.309798
1140.000000, 1.314529
1141.000000, 1.319490
1142.000000, 1.321181
1143.000000, 1.317674
1144.000000, 1.317628
1145.000000, 1.325821
1146.000000, 1.336607
1147.000000, 1.350235
1148.000000, 1.364422
1149.000000, 1.379369
1150.000000, 1.394684
1151.000000, 1.412651
1152.000000, 1.426921
1153.000000, 1.433176
1154.000000, 1.438970
1155.000000, 1.446188
1156.000000, 1.452090
1157.000000, 1.456368
1158.000000, 1.459532
1159.000000, 1.461523
1160.000000, 1.461687
1161.000000, 1.462933
1162.000000, 1.466492
1163.000000, 1.478460
1164.000000, 1.491782
1165.000000, 1.506878
1166.000000, 1.524401
1167.000000, 1.545344
1168.000000, 1.569476
1169.000000, 1.594297
1170.000000, 1.617681
1171.000000, 1.630887
1172.000000, 1.646922
1173.000000, 1.662462
1174.000000, 1.676182
1175.000000, 1.688448
1176.000000, 1.700444
1177.000000, 1.712037
1178.000000, 1.725577
1179.000000, 1.745211
1180.000000, 1.769128
1181.000000, 1.788620
1182.000000, 1.788048
1183.000000, 1.784512
1184.000000, 1.780691
1185.000000, 1.775802
1186.000000, 1.773647
1187.000000, 1.770519
1188.000000, 1.761008
1189.000000, 1.753469
1190.000000, 1.764949
1191.000000, 1.781446
1192.000000, 1.802472
1193.000000, 1.823811
1194.000000, 1.840187
1195.000000, 1.856565
1196.000000, 1.871809
1197.000000, 1.886951
1198.000000, 1.902457
1199.000000, 1.919343
1200.000000, 1.937652
1201.000000, 1.955205
1202.000000, 1.972329
1203.000000, 1.985769
1204.000000, 2.002768
1205.000000, 2.024833
1206.000000, 2.050149
1207.000000, 2.064176
1208.000000, 2.062089
1209.000000, 2.062112
1210.000000, 2.066303
1211.000000, 2.072138
1212.000000, 2.081433
1213.000000, 2.092524
1214.000000, 2.104861
1215.000000, 2.120238
1216.000000, 2.134838
1217.000000, 2.145673
1218.000000, 2.153659
1219.000000, 2.160548
1220.000000, 2.163489
1221.000000, 2.162817
1222.000000, 2.156772
1223.000000, 2.154689
1224.000000, 2.172480
1225.000000, 2.204024
1226.000000, 2.236635
1227.000000, 2.264921
1228.000000, 2.289346
1229.000000, 2.313271
1230.000000, 2.339788
1231.000000, 2.370574
1232.000000, 2.398705
1233.000000, 2.415530
1234.000000, 2.429434
1235.000000, 2.445960
1236.000000, 2.463057
1237.000000, 2.477971
1238.000000, 2.494809
1239.000000, 2.509744
1240.000000, 2.517218
1241.000000, 2.524925
1242.000000, 2.536234
1243.000000, 2.548905
1244.000000, 2.567121
1245.000000, 2.595229
1246.000000, 2.627689
1247.000000, 2.662916
1248.000000, 2.689093
1249.000000, 2.700782
1250.000000, 2.710455
1251.000000, 2.723902
1252.000000, 2.738939
1253.000000, 2.748262
1254.000000, 2.740756
1255.000000, 2.722990
1256.000000, 2.719984
1257.000000, 2.735246
1258.000000, 2.755055
1259.000000, 2.772607
1260.000000, 2.786554
1261.000000, 2.802885
1262.000000, 2.831162
1263.000000, 2.866399
1264.000000, 2.901800
1265.000000, 2.935783
1266.000000, 2.967185
1267.000000, 2.997434
1268.000000, 3.023563
1269.000000, 3.044728
1270.000000, 3.063118
1271.000000, 3.078471
1272.000000, 3.085628
1273.000000, 3.090841
1274.000000, 3.106207
1275.000000, 3.130101
1276.000000, 3.156328
1277.000000, 3.185053
1278.000000, 3.213916
1279.000000, 3.246104
1280.000000, 3.282806
1281.000000, 3.318139
1282.000000, 3.337006
1283.000000, 3.348533
1284.000000, 3.360058
1285.000000, 3.370511
1286.000000, 3.387345
1287.000000, 3.406603
1288.000000, 3.431260
1289.000000, 3.462454
1290.000000, 3.495088
1291.000000, 3.510936
1292.000000, 3.521854
1293.000000, 3.539840
1294.000000, 3.558240
1295.000000, 3.579226
1296.000000, 3.599912
1297.000000, 3.613762
1298.000000, 3.618079
1299.000000, 3.633747
1300.000000, 3.657849
1301.000000, 3.681030
1302.000000, 3.704359
1303.000000, 3.728108
1304.000000, 3.748329
1305.000000, 3.759400
1306.000000, 3.776932
1307.000000, 3.799881
1308.000000, 3.820862
1309.000000, 3.841461
1310.000000, 3.858353
1311.000000, 3.871705
1312.000000, 3.884365
1313.000000, 3.906944
1314.000000, 3.939829
1315.000000, 3.972288
1316.000000, 4.003136
1317.000000, 4.031681
1318.000000, 4.064592
1319.000000, 4.099432
1320.000000, 4.139895
1321.000000, 4.181721
1322.000000, 4.199833
1323.000000, 4.207161
1324.000000, 4.216605
1325.000000, 4.230315
1326.000000, 4.240314
1327.000000, 4.251846
1328.000000, 4.260435
1329.000000, 4.280141
1330.000000, 4.331979
1331.000000, 4.397392
1332.000000, 4.441586
1333.000000, 4.480863
1334.000000, 4.525805
1335.000000, 4.548656
1336.000000, 4.556461
1337.000000, 4.575968
1338.000000, 4.613847
1339.000000, 4.651085
1340.000000, 4.673245
1341.000000, 4.665945
1342.000000, 4.620309
1343.000000, 4.578332
1344.000000, 4.589746
1345.000000, 4.664779
1346.000000, 4.732174
1347.000000, 4.731139
1348.000000, 4.678924
1349.000000, 4.585335
1350.000000, 4.536195
1351.000000, 4.615396
1352.000000, 4.726458
1353.000000, 4.715134
1354.000000, 4.673354
1355.000000, 4.677287
1356.000000, 4.744927
1357.000000, 4.894534
1358.000000, 5.040190
1359.000000, 5.048144
1360.000000, 4.985523
1361.000000, 5.014380
1362.000000, 5.090909
1363.000000, 5.178562
1364.000000, 5.286275
1365.000000, 5.410577
1366.000000, 5.548418
1367.000000, 5.665934
1368.000000, 5.662512
1369.000000, 5.497986
1370.000000, 5.265179
1371.000000, 5.092630
1372.000000, 5.028047
1373.000000, 5.037467
1374.000000, 5.027660
1375.000000, 4.989012
1376.000000, 5.034123
1377.000000, 5.242765
1378.000000, 5.580149
1379.000000, 5.836206
1380.000000, 5.872822
1381.000000, 5.765380
1382.000000, 5.659804
1383.000000, 5.581747
1384.000000, 5.565251
1385.000000, 5.656031
1386.000000, 5.730734
1387.000000, 5.644334
1388.000000, 5.526346
1389.000000, 5.501395
1390.000000, 5.658101
1391.000000, 5.923116
1392.000000, 5.992280
1393.000000, 5.826913
1394.000000, 5.624689
1395.000000, 5.641920
1396.000000, 5.780873
1397.000000, 5.871923
1398.000000, 5.844606
1399.000000, 5.824318
1400.000000, 5.941899
1401.000000, 6.029650
1402.000000, 6.019760
1403.000000, 6.021923
1404.000000, 6.119727
1405.000000, 6.196098
1406.000000, 6.154072
1407.000000, 6.033345
1408.000000, 5.981188
1409.000000, 6.049440
1410.000000, 6.156449
1411.000000, 6.183024
1412.000000, 6.135790
1413.000000, 6.173363
1414.000000, 6.277048
1415.000000, 6.364581
1416.000000, 6.369033
1417.000000, 6.342693
1418.000000, 6.338494
1419.000000, 6.366584
1420.000000, 6.392824
1421.000000, 6.369362
1422.000000, 6.349747
1423.000000, 6.349119
1424.000000, 6.387567
1425.000000, 6.433589
1426.000000, 6.477528
1427.000000, 6.549171
1428.000000, 6.612095
1429.000000, 6.617416
1430.000000, 6.604510
1431.000000, 6.600416
1432.000000, 6.608351
1433.000000, 6.620682
1434.000000, 6.645439
1435.000000, 6.691512
1436.000000, 6.744066
1437.000000, 6.804420
1438.000000, 6.801739
1439.000000, 6.813577
1440.000000, 6.846364
1441.000000, 6.895502
1442.000000, 6.901305
1443.000000, 6.869577
1444.000000, 6.845088
1445.000000, 6.880922
1446.000000, 6.977994
1447.000000, 7.046645
1448.000000, 7.062422
1449.000000, 7.083146
1450.000000, 7.111132
1451.000000, 7.131607
1452.000000, 7.126105
1453.000000, 7.101688
1454.000000, 7.081986
1455.000000, 7.087975
1456.000000, 7.131284
1457.000000, 7.156753
1458.000000, 7.196604
1459.000000, 7.199043
1460.000000, 7.241472
1461.000000, 7.291044
1462.000000, 7.323974
1463.000000, 7.342178
1464.000000, 7.331175
1465.000000, 7.310778
1466.000000, 7.295496
1467.000000, 7.329441
1468.000000, 7.344717
1469.000000, 7.354388
1470.000000, 7.376126
1471.000000, 7.402514
1472.000000, 7.441969
1473.000000, 7.461039
1474.000000, 7.481435
1475.000000, 7.493698
1476.000000, 7.518883
1477.000000, 7.528186
1478.000000, 7.538491
1479.000000, 7.548727
1480.000000, 7.563238
1481.000000, 7.611737
1482.000000, 7.655853
1483.000000, 7.707470
1484.000000, 7.744089
1485.000000, 7.777851
1486.000000, 7.777774
1487.000000, 7.772497
1488.000000, 7.769694
1489.000000, 7.757972
1490.000000, 7.751107
1491.000000, 7.745868
1492.000000, 7.768814
1493.000000, 7.804887
1494.000000, 7.857776
1495.000000, 7.863754
1496.000000, 7.865343
1497.000000, 7.888039
1498.000000, 7.915297
1499.000000, 7.941752
1500.000000, 7.953721
1501.000000, 7.945279
1502.000000, 7.913360
1503.000000, 7.936591
1504.000000, 7.975980
1505.000000, 7.999030
1506.000000, 8.028306
1507.000000, 8.051401
1508.000000, 8.055379
1509.000000, 8.037817
1510.000000, 8.071334
1511.000000, 8.094334
1512.000000, 8.125713
1513.000000, 8.154824
1514.000000, 8.171543
1515.000000, 8.173611
1516.000000, 8.148900
1517.000000, 8.166044
1518.000000, 8.174512
1519.000000, 8.182764
1520.000000, 8.182120
1521.000000, 8.182360
1522.000000, 8.194128
1523.000000, 8.230732
1524.000000, 8.305104
1525.000000, 8.360714
1526.000000, 8.373068
1527.000000, 8.384439
1528.000000, 8.388582
1529.000000, 8.386421
1530.000000, 8.365637
1531.000000, 8.336761
1532.000000, 8.311524
1533.000000, 8.320369
1534.000000, 8.384291
1535.000000, 8.458968
1536.000000, 8.501441
1537.000000, 8.497501
1538.000000, 8.494817
1539.000000, 8.491240
1540.000000, 8.487217
1541.000000, 8.478720
1542.000000, 8.464176
1543.000000, 8.457514
1544.000000, 8.481974
1545.000000, 8.530696
1546.000000, 8.547002
1547.000000, 8.567740
1548.000000, 8.588647
1549.000000, 8.607681
1550.000000, 8.624350
1551.000000, 8.600085
1552.000000, 8.537123
1553.000000, 8.502631
1554.000000, 8.510627
1555.000000, 8.521532
1556.000000, 8.547352
1557.000000, 8.575053
1558.000000, 8.595785
1559.000000, 8.613898
1560.000000, 8.632008
1561.000000, 8.664731
1562.000000, 8.694413
1563.000000, 8.727417
1564.000000, 8.742607
1565.000000, 8.715206
1566.000000, 8.651773
1567.000000, 8.629071
1568.000000, 8.646380
1569.000000, 8.645885
1570.000000, 8.649800
1571.000000, 8.651850
1572.000000, 8.672306
1573.000000, 8.722323
1574.000000, 8.776211
1575.000000, 8.782760
1576.000000, 8.772356
1577.000000, 8.754658
1578.000000, 8.736768
1579.000000, 8.710742
1580.000000, 8.663448
1581.000000, 8.608847
1582.000000, 8.602899
1583.000000, 8.640053
1584.000000, 8.686800
1585.000000, 8.748717
1586.000000, 8.811074
1587.000000, 8.872926
1588.000000, 8.943166
1589.000000, 9.020831
1590.000000, 9.046950
1591.000000, 9.041687
1592.000000, 9.026622
1593.000000, 8.994757
1594.000000, 8.953172
1595.000000, 8.902373
1596.000000, 8.845857
1597.000000, 8.791270
1598.000000, 8.761399
1599.000000, 8.754348
1600.000000, 8.756323
1601.000000, 8.764688
1602.000000, 8.768040
1603.000000, 8.777905
1604.000000, 8.791237
1605.000000, 8.794419
1606.000000, 8.803895
1607.000000, 8.820211
1608.000000, 8.839921
1609.000000, 8.865361
1610.000000, 8.904048
1611.000000, 8.946728
1612.000000, 8.984722
1613.000000, 8.993832
1614.000000, 8.977798
1615.000000, 8.954052
1616.000000, 8.933439
1617.000000, 8.919837
1618.000000, 8.897819
1619.000000, 8.880485
1620.000000, 8.874346
1621.000000, 8.900598
1622.000000, 8.925809
1623.000000, 8.920132
1624.000000, 8.917118
1625.000000, 8.911401
1626.000000, 8.912741
1627.000000, 8.914436
1628.000000, 8.907197
1629.000000, 8.877010
1630.000000, 8.861933
1631.000000, 8.879371
1632.000000, 8.888219
1633.000000, 8.899878
1634.000000, 8.917053
1635.000000, 8.920770
1636.000000, 8.893334
1637.000000, 8.864843
1638.000000, 8.858894
1639.000000, 8.863274
1640.000000, 8.881524
1641.000000, 8.894557
1642.000000, 8.893044
1643.000000, 8.905495
1644.000000, 8.946511
1645.000000, 8.973509
1646.000000, 8.971146
1647.000000, 8.956790
1648.000000, 8.929821
1649.000000, 8.910676
1650.000000, 8.897877
1651.000000, 8.867513
1652.000000, 8.838019
1653.000000, 8.860431
1654.000000, 8.909480
1655.000000, 8.957391
1656.000000, 9.011857
1657.000000, 9.062118
1658.000000, 9.131758
1659.000000, 9.251607
1660.000000, 9.407010
1661.000000, 9.473934
1662.000000, 9.478819
1663.000000, 9.473508
1664.000000, 9.423425
1665.000000, 9.343194
1666.000000, 9.241427
1667.000000, 9.090819
1668.000000, 8.914173
1669.000000, 8.821973
1670.000000, 8.791999
1671.000000, 8.786592
1672.000000, 8.838088
1673.000000, 8.901934
1674.000000, 8.921280
1675.000000, 8.921324
1676.000000, 8.910245
1677.000000, 8.902278
1678.000000, 8.891895
1679.000000, 8.870210
1680.000000, 8.842803
1681.000000, 8.836441
1682.000000, 8.877584
1683.000000, 8.930899
1684.000000, 8.946748
1685.000000, 8.924543
1686.000000, 8.902282
1687.000000, 8.877621
1688.000000, 8.836127
1689.000000, 8.795327
1690.000000, 8.761501
1691.000000, 8.747164
1692.000000, 8.771227
1693.000000, 8.817812
1694.000000, 8.879858
1695.000000, 8.960451
1696.000000, 9.032429
1697.000000, 9.040898
1698.000000, 9.017987
1699.000000, 8.992860
1700.000000, 8.960457
1701.000000, 8.934290
1702.000000, 8.880657
1703.000000, 8.817313
1704.000000, 8.777953
1705.000000, 8.791996
1706.000000, 8.835187
1707.000000, 8.880877
1708.000000, 8.937656
1709.000000, 8.975136
1710.000000, 8.995540
1711.000000, 8.984873
1712.000000, 8.949320
1713.000000, 8.915007
1714.000000, 8.874135
1715.000000, 8.818986
1716.000000, 8.759828
1717.000000, 8.727004
1718.000000, 8.721127
1719.000000, 8.746207
1720.000000, 8.780176
1721.000000, 8.821298
1722.000000, 8.873501
1723.000000, 8.928566
1724.000000, 8.987155
1725.000000, 9.046917
1726.000000, 9.099214
1727.000000, 9.096229
1728.000000, 9.082363
1729.000000, 9.047231
1730.000000, 8.999715
1731.000000, 8.955938
1732.000000, 8.904122
1733.000000, 8.840857
1734.000000, 8.783952
1735.000000, 8.784700
1736.000000, 8.807563
1737.000000, 8.842302
1738.000000, 8.874168
1739.000000, 8.913559
1740.000000, 8.964233
1741.000000, 9.030703
1742.000000, 9.108050
1743.000000, 9.155865
1744.000000, 9.139719
1745.000000, 9.107126
1746.000000, 9.080780
1747.000000, 9.042527
1748.000000, 8.996467
1749.000000, 8.928684
1750.000000, 8.855302
1751.000000, 8.804252
1752.000000, 8.800955
1753.000000, 8.808711
1754.000000, 8.807939
1755.000000, 8.827134
1756.000000, 8.842597
1757.000000, 8.855201
1758.000000, 8.864321
1759.000000, 8.875014
1760.000000, 8.893619
1761.000000, 8.911509
1762.000000, 8.926304
1763.000000, 8.936656
1764.000000, 8.958124
1765.000000, 8.995093
1766.000000, 9.019480
1767.000000, 9.030513
1768.000000, 9.046325
1769.000000, 9.083763
1770.000000, 9.094153
1771.000000, 9.118685
1772.000000, 9.155711
1773.000000, 9.185046
1774.000000, 9.265806
1775.000000, 9.341186
1776.000000, 9.396156
1777.000000, 9.412161
1778.000000, 9.430402
1779.000000, 9.415719
1780.000000, 9.369951
1781.000000, 9.332434
1782.000000, 9.251060
1783.000000, 9.185385
1784.000000, 9.155542
1785.000000, 9.134038
1786.000000, 9.152559
1787.000000, 9.173021
1788.000000, 9.153181
1789.000000, 9.139030
1790.000000, 9.176949
1791.000000, 9.245269
1792.000000, 9.314837
1793.000000, 9.378508
1794.000000, 9.368728
1795.000000, 9.333378
1796.000000, 9.379734
1797.000000, 9.409868
1798.000000, 9.396107
1799.000000, 9.344968
1800.000000, 9.246332
1801.000000, 9.156341
1802.000000, 9.154045
1803.000000, 9.208033
1804.000000, 9.269668
1805.000000, 9.396386
1806.000000, 9.536782
1807.000000, 9.543985
1808.000000, 9.400827
1809.000000, 9.229773
1810.000000, 9.159288
1811.000000, 9.311474
1812.000000, 9.533505
1813.000000, 9.582337
1814.000000, 9.471114
1815.000000, 9.409376
1816.000000, 9.515865
1817.000000, 9.644280
1818.000000, 9.701346
1819.000000, 9.565860
1820.000000, 9.448666
1821.000000, 9.475685
1822.000000, 9.590350
1823.000000, 9.642860
1824.000000, 9.584720
1825.000000, 9.609620
1826.000000, 9.652518
1827.000000, 9.584927
1828.000000, 9.284691
1829.000000, 8.902235
1830.000000, 8.993552
1831.000000, 8.901719
1832.000000, 9.243035
1833.000000, 9.622392
1834.000000, 9.589761
1835.000000, 9.278841
1836.000000, 9.520341
1837.000000, 9.682276
1838.000000, 9.949506
1839.000000, 9.949506
1840.000000, 9.880378
1841.000000, 9.880378
1842.000000, 9.832090
1843.000000, 9.420157
1844.000000, 9.420157
1845.000000, 9.420157
1846.000000, 9.420157
1847.000000, 9.718645
1848.000000, 9.420157
1849.000000, 9.390481
1850.000000, 9.605873
1851.000000, 9.840339
1852.000000, 9.708424
1853.000000, 9.708424
1854.000000, 9.708424
1855.000000, 9.708424
1856.000000, 9.708424
1857.000000, 9.708424
1858.000000, 9.708424
1859.000000, 9.708424
1860.000000, 9.275796
1861.000000, 8.945085
1862.000000, 8.738188
1863.000000, 8.742918
1864.000000, 8.904796
1865.000000, 9.147702
1866.000000, 9.495188
1867.000000, 9.988201
1868.000000, 10.386747
1869.000000, 10.639238
1870.000000, 10.741400
1871.000000, 10.670382
1872.000000, 10.599549
1873.000000, 10.592450
1874.000000, 10.536734
1875.000000, 10.393500
1876.000000, 10.264072
1877.000000, 10.205640
1878.000000, 10.194385
1879.000000, 10.180327
1880.000000, 10.130920
1881.000000, 10.069791
1882.000000, 10.084270
1883.000000, 10.209462
1884.000000, 10.375088
1885.000000, 10.402586
1886.000000, 10.384508
1887.000000, 10.348147
1888.000000, 10.304731
1889.000000, 10.289523
1890.000000, 10.304791
1891.000000, 10.171158
1892.000000, 9.900158
1893.000000, 9.732501
1894.000000, 9.689316
1895.000000, 9.825216
1896.000000, 10.158983
1897.000000, 10.479661
1898.000000, 10.596092
1899.000000, 10.618782
1900.000000, 10.599696
1901.000000, 10.596144
1902.000000, 10.644782
1903.000000, 10.701927
1904.000000, 10.740261
1905.000000, 10.701605
1906.000000, 10.595147
1907.000000, 10.464584
1908.000000, 10.378610
1909.000000, 10.377180
1910.000000, 10.442061
1911.000000, 10.463939
1912.000000, 10.351476
1913.000000, 10.241333
1914.000000, 10.171344
1915.000000, 10.210255
1916.000000, 10.371989
1917.000000, 10.540171
1918.000000, 10.614647
1919.000000, 10.645343
1920.000000, 10.622248
1921.000000, 10.603037
1922.000000, 10.621872
1923.000000, 10.691031
1924.000000, 10.752419
1925.000000, 10.770947
1926.000000, 10.808795
1927.000000, 10.789464
1928.000000, 10.752823
1929.000000, 10.759285
1930.000000, 10.859239
1931.000000, 10.987932
1932.000000, 11.060110
1933.000000, 11.055148
1934.000000, 11.026671
1935.000000, 11.091111
1936.000000, 11.155830
1937.000000, 11.160894
1938.000000, 11.139867
1939.000000, 11.128671
1940.000000, 11.158263
1941.000000, 11.212149
1942.000000, 11.221081
1943.000000, 11.177595
1944.000000, 11.211158
1945.000000, 11.250373
1946.000000, 11.206945
1947.000000, 11.122391
1948.000000, 11.110599
1949.000000, 11.179247
1950.000000, 11.257169
1951.000000, 11.287854
1952.000000, 11.271244
1953.000000, 11.294252
1954.000000, 11.365550
1955.000000, 11.443768
1956.000000, 11.416268
1957.000000, 11.393655
1958.000000, 11.435609
1959.000000, 11.500532
1960.000000, 11.541487
1961.000000, 11.531547
1962.000000, 11.545885
1963.000000, 11.605108
1964.000000, 11.686806
1965.000000, 11.737652
1966.000000, 11.756741
1967.000000, 11.786086
1968.000000, 11.821006
1969.000000, 11.875268
1970.000000, 11.888535
1971.000000, 11.838601
1972.000000, 11.806105
1973.000000, 11.782906
1974.000000, 11.756324
1975.000000, 11.741828
1976.000000, 11.756365
1977.000000, 11.760848
1978.000000, 11.788328
1979.000000, 11.840757
1980.000000, 11.899357
1981.000000, 11.979723
1982.000000, 12.080093
1983.000000, 12.126490
1984.000000, 12.115604
1985.000000, 12.123643
1986.000000, 12.132875
1987.000000, 12.152739
1988.000000, 12.174020
1989.000000, 12.140175
1990.000000, 12.062423
1991.000000, 12.061684
1992.000000, 12.096360
1993.000000, 12.163189
1994.000000, 12.216170
1995.000000, 12.331314
1996.000000, 12.396185
1997.000000, 12.570229
1998.000000, 12.845303
1999.000000, 13.141486
2000.065834, 13.538363
2009.942668, 13.866257
2020.098566, 14.217162
2029.969298, 14.534040
2039.837000, 14.887222
2049.983460, 15.193550
2059.844971, 15.457409
2069.985031, 15.776816
2079.840289, 16.064511
2089.973887, 16.327425
2099.822832, 16.666623
2109.949906, 16.962787
2119.792477, 17.248589
2129.912964, 17.617583
2140.030088, 17.924120
2149.862941, 18.207531
2159.973384, 18.494576
2169.799712, 18.866380
2179.903413, 19.150471
2190.003671, 19.429978
2199.820052, 19.721562
2209.913475, 20.057547
2219.723179, 20.406679
2229.809704, 20.705605
2239.892708, 20.969796
2249.692237, 21.260907
2259.768250, 21.484422
2269.840694, 21.837112
2279.909553, 22.248774
2289.695271, 22.457806
2299.757015, 22.700269
2309.815127, 22.934822
2319.869592, 23.179953
2329.641254, 23.483441
2339.688478, 23.762931
2349.732008, 24.023417
2359.771828, 24.274389
2369.807920, 24.442944
2379.840271, 24.838153
2389.590342, 25.100667
2399.615266, 25.442253
2409.636400, 25.696278
2419.653730, 26.058638
2429.667238, 26.237905
2439.676909, 26.508671
2449.682728, 26.928763
2459.684679, 27.127068
2469.682745, 27.458380
2479.676911, 27.856248
2489.667162, 27.985857
2499.653481, 28.364718
2509.635853, 28.667117
2519.614261, 28.702484
2529.588691, 29.038268
2539.559127, 29.158893
2549.525552, 29.357439
2559.487951, 29.393646
2569.722871, 29.668324
2579.677058, 29.938845
2589.627171, 29.858254
2599.573195, 30.040076
2609.515113, 29.841772
2619.452911, 29.704674
2629.662448, 29.521969
2639.591842, 29.135763
2649.517067, 28.450968
2659.438109, 27.003028
2669.630358, 25.683392
2679.542867, 23.908597
2689.451145, 21.878770
2699.630227, 19.767460
2709.529877, 17.509871
2719.425248, 15.378551
2729.591015, 13.478182
2739.477662, 12.080780
2749.359982, 10.957890
2759.512287, 10.226298
2769.385788, 9.741478
2779.528995, 9.504937
2789.393611, 9.378023
2799.527654, 9.300137
2809.383323, 9.325427
2819.508136, 9.337961
2829.354792, 9.456598
2839.470310, 9.606923
2849.307890, 9.805920
2859.414046, 10.008711
2869.515434, 10.156948
2879.339216, 10.352126
2889.431143, 10.548049
2899.245690, 10.682330
2909.328092, 10.900729
2919.405640, 11.070910
2929.206149, 11.352233
2939.274073, 11.548860
2949.337095, 11.789142
2959.395197, 11.994337
2969.176720, 12.213202
2979.225066, 12.553175
2989.268442, 12.798632
2999.306833, 13.017749
3009.340220, 13.193927
3019.368587, 13.519342
3029.391918, 13.723943
3039.139497, 14.343703
3049.152842, 14.680044
3059.161100, 14.967867
3069.164256, 15.386235
3079.162292, 15.725091
3089.155191, 16.116264
3099.142938, 16.417188
3109.125515, 16.841363
3119.102905, 16.819920
3129.075093, 17.156359
3139.311366, 17.547752
3149.272956, 17.829430
3159.229293, 18.153725
3169.180360, 18.375255
3179.126141, 18.743444
3189.066618, 19.026252
3199.270220, 19.262165
3209.199897, 19.395024
3219.124221, 19.499168
3229.043176, 19.454195
3239.224603, 19.614927
3249.132622, 19.788695
3259.035221, 19.550014
3269.199799, 19.458438
3279.091361, 19.410665
3288.977454, 19.252361
3299.125027, 18.975736
3308.999981, 18.582972
3319.136081, 17.858374
3328.999829, 17.194086
3339.124385, 16.571344
3348.976861, 15.661676
3359.089804, 14.876424
3368.930939, 14.013470
3379.032200, 13.094555
3389.127517, 12.246362
3398.951437, 11.441396
3409.034967, 10.345091
3419.112499, 9.404436
3428.919052, 8.670517
3438.984693, 7.779031
3449.044284, 6.886264
3458.833318, 6.073311
3468.880914, 5.365890
3478.922407, 4.743797
3488.957779, 4.247963
3498.987012, 3.798302
3509.010089, 3.356164
3519.026992, 2.919748
3529.037703, 2.620107
3538.779008, 2.322710
3548.777448, 2.158065
3558.769643, 2.012159
3568.755577, 1.845569
3578.997769, 1.713477
3588.970961, 1.636960
3598.937838, 1.601866
3608.898383, 1.503280
3618.852578, 1.539024
3628.800407, 1.509196
3638.741850, 1.418333
3648.938253, 1.554238
3658.866705, 1.652823
3668.788719, 1.682664
3678.704279, 1.680829
3688.874043, 1.786071
3698.776469, 1.836013
3708.672387, 2.006016
3718.821938, 2.274403
3728.704616, 2.442193
3738.840542, 2.609304
3748.709907, 2.833458
3758.832135, 3.139965
3768.688117, 3.387219
3778.796573, 3.644817
3788.639101, 3.858106
3798.733711, 3.878297
3808.821282, 3.858911
3818.643407, 3.849370
3828.717023, 3.786076
3838.783543, 3.718274
3848.585104, 3.718439
3858.637559, 3.624748
3868.682864, 3.411400
3878.720999, 3.442131
3888.751945, 3.418347
3898.518755, 3.354489
3908.535455, 3.201350
3918.544910, 3.038567
3928.547104, 2.906654
3938.542016, 2.775385
3948.529630, 2.710397
3958.509925, 2.466533
3968.482884, 2.398021
3978.703920, 2.315449
3988.661962, 2.521421
3998.612612, 2.483903
4008.555852, 2.397636
4018.491662, 2.450135
4028.674500, 2.541379
4038.595205, 2.685982
4048.508426, 2.652922
4058.414143, 2.641857
4068.566040, 2.473711
4078.456503, 2.456057
4088.592715, 2.496240
4098.467848, 2.510807
4108.588299, 2.439056
4118.448027, 2.341486
4128.552639, 2.395019
4138.396887, 2.598374
4148.485584, 2.441661
4158.566193, 2.576681
4168.386981, 2.988686
4178.451560, 3.009674
4188.507992, 2.902420
4198.305151, 2.881595
4208.345437, 2.433106
4218.377519, 2.100453
4228.401377, 2.173197
4238.416991, 2.227378
4248.424343, 1.650718
4258.423411, 1.466196
4268.414178, 1.384956
4278.396623, 1.333945
4288.370728, 1.632421
4298.336471, 1.671221
4308.293836, 1.622025
4318.242800, 1.390094
4328.431752, 1.318942
4338.363649, 1.356712
4348.287088, 1.277430
4358.202050, 1.153609
4368.356068, 1.088903
4378.253805, 1.055330
4388.390126, 0.982536
4398.270558, 0.880797
4408.389101, 0.949283
4418.252149, 0.816698
4428.352834, 0.822685
4438.198419, 0.746564
4448.281165, 0.746564
4458.354799, 0.697992
4468.173935, 0.660875
4478.229508, 0.617909
4488.275909, 0.573579
4498.313117, 0.536264
4508.096635, 0.503588
4518.115621, 0.470655
4528.125352, 0.450336
4538.125809, 0.433400
4548.116970, 0.409815
4558.098816, 0.391634
4568.071325, 0.378094
4578.277365, 0.358732
4588.230912, 0.336619
4598.175061, 0.318896
4608.109792, 0.306718
4618.035085, 0.295080
4628.192649, 0.281474
4638.098772, 0.270803
4647.995395, 0.261069
4658.123528, 0.249585
4668.000857, 0.240016
4678.109183, 0.232028
4687.967136, 0.225903
4698.055570, 0.218118
4708.133906, 0.211491
4717.962521, 0.206680
4728.020838, 0.203427
4738.068993, 0.203229
4748.106964, 0.200956
4758.134730, 0.199758
4767.913874, 0.200984
4777.921408, 0.199499
4787.918673, 0.195484
4797.905646, 0.190634
4807.882307, 0.186006
4818.085802, 0.184117
4828.041526, 0.181360
4837.986874, 0.180435
4847.921823, 0.179461
4857.846351, 0.176012
4867.996361, 0.172585
4877.899737, 0.169317
4888.028045, 0.166923
4897.910179, 0.165600
4908.016697, 0.163225
4917.877504, 0.160422
4927.962141, 0.157927
4937.801534, 0.155008
4947.864203, 0.153087
4957.915724, 0.151423
4967.956075, 0.148868
4977.985234, 0.147113
4987.770330, 0.145115
4997.777298, 0.157046
5007.776688, 0.157058
5017.595804, 0.157072
5028.169082, 0.157086
5037.986050, 0.157099
5047.801980, 0.157111
5057.616872, 0.157123
5068.185590, 0.157133
5077.998316, 0.157142
5087.809996, 0.157150
5097.620628, 0.157159
5107.430211, 0.157169
5117.993201, 0.157179
5127.800597, 0.157189
5137.606938, 0.157196
5147.412220, 0.157201
5157.970569, 0.157206
5167.773648, 0.157212
5177.575662, 0.157219
5187.376611, 0.157227
5197.930283, 0.157236
5207.729011, 0.157246
5217.526666, 0.157257
5227.323247, 0.157268
5237.872207, 0.157281
5247.666549, 0.157295
5257.459812, 0.157309
5268.005191, 0.157325
5277.796202, 0.157341
5287.586127, 0.157358
5297.374963, 0.157376
5307.915566, 0.157394
5317.702134, 0.157412
5327.487607, 0.157431
5337.271982, 0.157451
5347.807773, 0.157473
5357.589864, 0.157495
5367.370852, 0.157519
5377.902987, 0.157542
5387.681677, 0.157567
5397.459258, 0.157591
5407.235727, 0.157616
5417.762987, 0.157641
5427.537141, 0.157668
5437.310177, 0.157693
5447.833734, 0.157718
5457.604442, 0.157744
5467.374028, 0.157771
5477.142487, 0.157798
5487.661104, 0.157824
5497.427219, 0.157852
5507.192201, 0.157879
5517.707068, 0.157908
5527.469693, 0.157938
5537.231179, 0.157967
5547.742274, 0.157996
5557.501390, 0.158023
5567.259362, 0.158047
5577.766665, 0.158070
5587.522253, 0.158093
5597.276691, 0.158114
5607.780182, 0.158135
5617.532223, 0.158154
5627.283108, 0.158173
5637.032835, 0.158192
5647.531242, 0.158213
5657.278555, 0.158232
5667.024703, 0.158252
5677.519250, 0.158270
5687.262972, 0.158289
5697.005523, 0.158306
5707.496189, 0.158321
5717.236302, 0.158337
5726.975237, 0.158353
5737.462002, 0.158370
5747.198485, 0.158388
5757.682605, 0.158406
5767.416629, 0.158425
5777.149464, 0.158446
5787.629649, 0.158466
5797.360012, 0.158487
5807.089180, 0.158508
5817.565409, 0.158530
5827.292092, 0.158553
5837.017575, 0.158576
5847.489828, 0.158599
5857.212813, 0.158622
5866.934591, 0.158646
5877.402847, 0.158671
5887.122114, 0.158696
5897.587661, 0.158721
5907.304408, 0.158747
5917.019938, 0.158773
5927.481454, 0.158797
5937.194452, 0.158821
5946.906226, 0.158844
5957.363691, 0.158867
5967.072921, 0.158891
5977.527640, 0.158915
5987.234315, 0.158940
5996.939757, 0.158963
6007.390390, 0.158984
6017.093265, 0.159004
6026.794901, 0.159021
6037.241429, 0.159036
6046.940485, 0.159049
6057.384230, 0.159061
6067.080698, 0.159072
6076.775917, 0.159084
6087.215522, 0.159095
6096.908139, 0.159108
6107.344938, 0.159121
6117.034946, 0.159135
6126.723694, 0.159149
6137.156319, 0.159163
6146.842444, 0.159178
6157.272241, 0.159194
6166.955735, 0.159210
6177.382693, 0.159228
6187.063548, 0.159245
6196.743128, 0.159261
6207.165865, 0.159278
6216.842793, 0.159293
6227.262668, 0.159308
6236.936935, 0.159321
6246.609918, 0.159334
6257.025537, 0.159347
6266.695846, 0.159360
6277.108582, 0.159374
6286.776208, 0.159389
6297.186050, 0.159403
6306.850986, 0.159418
6317.257926, 0.159433
6326.920162, 0.159447
6336.581095, 0.159463
6346.983717, 0.159478
6356.641938, 0.159493
6367.041635, 0.159508
6376.697135, 0.159522
6387.093897, 0.159536
6396.746668, 0.159549
6407.140486, 0.159563
6416.790518, 0.159577
6427.181383, 0.159592
6436.828669, 0.159607
6446.474630, 0.159622
6456.861103, 0.159635
6466.504304, 0.159647
6476.887800, 0.159658
6486.528234, 0.159667
6496.908745, 0.159675
6506.546402, 0.159680
6516.923919, 0.159684
6526.558791, 0.159687
6536.933304, 0.159689
6546.565382, 0.159690
6556.936882, 0.159691
6566.566159, 0.159690
6576.934637, 0.159687
6586.561102, 0.159684
6596.926549, 0.159678
6606.550195, 0.159671
6616.912601, 0.159662
6626.533420, 0.159651
6636.892776, 0.159640
6646.510758, 0.159628
6656.867055, 0.159615
6666.482193, 0.159600
6676.835422, 0.159584
6686.447706, 0.159566
6696.797857, 0.159547
6706.407280, 0.159527
6716.754344, 0.159506
6726.360896, 0.159485
6736.704865, 0.159464
6746.308538, 0.159443
6756.649402, 0.159424
6766.250188, 0.159404
6776.587937, 0.159385
6786.924068, 0.159366
6796.520453, 0.159348
6806.853456, 0.159329
6816.446931, 0.159310
6826.776797, 0.159293
6836.367355, 0.159276
6846.694074, 0.159259
6856.281707, 0.159243
6866.605270, 0.159226
6876.189968, 0.159210
6886.510366, 0.159195
6896.829120, 0.159180
6906.409345, 0.159164
6916.724921, 0.159149
6926.302190, 0.159133
6936.614577, 0.159116
6946.188882, 0.159099
6956.498072, 0.159082
6966.805601, 0.159064
6976.375388, 0.159045
6986.679706, 0.159027
6996.246507, 0.159010
7006.547605, 0.158992
7016.111412, 0.158976
7026.409280, 0.158959
7036.705470, 0.158943
7046.264714, 0.158927
7056.557661, 0.158912
7066.113889, 0.158897
7076.403584, 0.158883
7086.691589, 0.158868
7096.243221, 0.158854
7106.527959, 0.158840
7116.076554, 0.158825
7126.358018, 0.158811
7136.637779, 0.158796
7146.181746, 0.158781
7156.458218, 0.158766
7165.999126, 0.158751
7176.272300, 0.158737
7186.543760, 0.158724
7196.080008, 0.158711
7206.348156, 0.158698
7216.614582, 0.158686
7226.146150, 0.158674
7236.409251, 0.158663
7245.937725, 0.158652
7256.197491, 0.158641
7266.455524, 0.158630
7275.979286, 0.158619
7286.233970, 0.158607
7296.486914, 0.158594
7306.005944, 0.158582
7316.255525, 0.158570
7326.503358, 0.158558
7336.017637, 0.158546
7346.262094, 0.158535
7356.504797, 0.158524
7366.014304, 0.158514
7376.253616, 0.158504
7386.491167, 0.158494
7395.995884, 0.158485
7406.230030, 0.158476
7416.462408, 0.158468
7425.962315, 0.158459
7436.191274, 0.158450
7446.418458, 0.158441
7455.913536, 0.158431
7466.137287, 0.158421
7476.359256, 0.158410
7485.849485, 0.158398
7496.068008, 0.158385
7506.284741, 0.158372
7515.770101, 0.158358
7525.983375, 0.158343
7536.194850, 0.158329
7545.675324, 0.158314
7555.883326, 0.158300
7566.089524, 0.158286
7576.293916, 0.158273
7585.767802, 0.158259
7595.968701, 0.158247
7606.167786, 0.158234
7615.636739, 0.158222
7625.832319, 0.158210
7636.026078, 0.158200
7646.218013, 0.158189
7655.680318, 0.158177
7665.868729, 0.158165
7676.055310, 0.158152
7686.240057, 0.158140
7695.695679, 0.158126
7705.876884, 0.158112
7716.056248, 0.158097
7726.233770, 0.158082
7735.682674, 0.158067
7745.856636, 0.158052
7756.028747, 0.158038
7766.199006, 0.158024
7775.641157, 0.158010
7785.807837, 0.157997
7795.972657, 0.157982
7806.135616, 0.157968
7815.570980, 0.157954
7825.730341, 0.157940
7835.887833, 0.157925
7846.043454, 0.157911
7855.471995, 0.157896
7865.624000, 0.157881
7875.774127, 0.157867
7885.922372, 0.157852
7896.068734, 0.157837
7905.488668, 0.157822
7915.631391, 0.157807
7925.772224, 0.157791
7935.911164, 0.157775
7946.048209, 0.157760
7955.459480, 0.157745
7965.592863, 0.157731
7975.724343, 0.157717
7985.853919, 0.157703
7995.981587, 0.157688
8005.384141, 0.157672
8015.508125, 0.157656
8025.630194, 0.157639
8035.750346, 0.157622
8045.868580, 0.157603
8055.984892, 0.157586
8065.376887, 0.157568
8075.489487, 0.157551
8085.600158, 0.157535
8095.708897, 0.157519
8105.815704, 0.157503
8115.920574, 0.157487
8125.301933, 0.157471
8135.403063, 0.157456
8145.502251, 0.157440
8155.599493, 0.157425
8165.694787, 0.157410
8175.788131, 0.157394
8185.879523, 0.157379
8195.248351, 0.157363
8205.335970, 0.157348
8215.421630, 0.157332
8225.505327, 0.157317
8235.587061, 0.157301
8245.666827, 0.157286
8255.744624, 0.157270
8265.820450, 0.157254
8275.174806, 0.157238
8285.246822, 0.157222
8295.316860, 0.157206
8305.384917, 0.157190
8315.450990, 0.157175
8325.515077, 0.157160
8335.577176, 0.157144
8345.637284, 0.157129
8355.695399, 0.157113
8365.751519, 0.157098
8375.087555, 0.157084
8385.139819, 0.157069
8395.190081, 0.157055
8405.238338, 0.157041
8415.284587, 0.157027
8425.328827, 0.157013
8435.371055, 0.157000
8445.411268, 0.156986
8455.449464, 0.156973
8465.485641, 0.156960
8475.519796, 0.156947
8485.551927, 0.156935
8495.582031, 0.156922
8505.610107, 0.156909
8515.636151, 0.156897
8525.660162, 0.156883
8535.682136, 0.156870
8544.986430, 0.156857
8555.004471, 0.156843
8565.020468, 0.156830
8575.034421, 0.156817
8585.046325, 0.156805
8595.056179, 0.156793
8605.063981, 0.156781
8615.069727, 0.156770
8625.073416, 0.156759
8635.075045, 0.156748
8645.074612, 0.156738
8655.072114, 0.156728
8665.067549, 0.156718
8675.060915, 0.156708
8685.052209, 0.156699
8695.041429, 0.156689
8705.028573, 0.156679
8715.013637, 0.156669
8724.996620, 0.156659
8734.977519, 0.156648
8744.956333, 0.156637
8754.933058, 0.156625
8764.907692, 0.156614
8774.880232, 0.156603
8784.850677, 0.156592
8794.819025, 0.156581
8804.785271, 0.156570
8815.461059, 0.156560
8825.422948, 0.156550
8835.382728, 0.156541
8845.340399, 0.156531
8855.295957, 0.156522
8865.249401, 0.156514
8875.200727, 0.156506
8885.149933, 0.156498
8895.097018, 0.156491
8905.041978, 0.156484
8914.984812, 0.156478
8924.925517, 0.156472
8934.864090, 0.156466
8944.800529, 0.156461
8954.734832, 0.156456
8965.376355, 0.156451
8975.306225, 0.156447
8985.233952, 0.156444
8995.159534, 0.156440
9005.082967, 0.156437
9015.004249, 0.156434
9024.923378, 0.156432
9034.840353, 0.156430
9044.755169, 0.156427
9054.667825, 0.156426
9065.286129, 0.156424
9075.194303, 0.156422
9085.100310, 0.156421
9095.004147, 0.156420
9104.905813, 0.156418
9114.805303, 0.156417
9124.702617, 0.156417
9134.597752, 0.156416
9145.197262, 0.156416
9155.087875, 0.156417
9164.976302, 0.156417
9174.862540, 0.156418
9184.746587, 0.156419
9194.628441, 0.156420
9204.508098, 0.156422
9215.091006, 0.156424
9224.966108, 0.156426
9234.839006, 0.156428
9244.709699, 0.156431
9254.578185, 0.156433
9265.149109, 0.156436
9275.013013, 0.156440
9284.874702, 0.156443
9294.734174, 0.156446
9304.591426, 0.156449
9314.446456, 0.156451
9325.002949, 0.156454
9334.853368, 0.156457
9344.701558, 0.156460
9354.547517, 0.156462
9364.391241, 0.156465
9374.935607, 0.156468
9384.774696, 0.156471
9394.611544, 0.156474
9404.446148, 0.156477
9414.980732, 0.156481
9424.810682, 0.156485
9434.638380, 0.156489
9444.463825, 0.156493
9454.988585, 0.156498
9464.809356, 0.156502
9474.627866, 0.156507
9484.444114, 0.156513
9494.959008, 0.156518
9504.770561, 0.156524
9514.579844, 0.156530
9524.386855, 0.156536
9534.891842, 0.156543
9544.694139, 0.156550
9554.494156, 0.156557
9564.291891, 0.156564
9574.786929, 0.156572
9584.579930, 0.156579
9594.370643, 0.156587
9604.858149, 0.156595
9614.644112, 0.156603
9624.427779, 0.156611
9634.209147, 0.156619
9644.686632, 0.156628
9654.463232, 0.156637
9664.237526, 0.156646
9674.707423, 0.156656
9684.476934, 0.156665
9694.244132, 0.156675
9704.706417, 0.156686
9714.468817, 0.156696
9724.228897, 0.156706
9734.683548, 0.156717
9744.438814, 0.156727
9754.191753, 0.156737
9764.638746, 0.156748
9774.386857, 0.156759
9784.132634, 0.156770
9794.571945, 0.156782
9804.312879, 0.156794
9814.746996, 0.156807
9824.483078, 0.156819
9834.216813, 0.156832
9844.643209, 0.156846
9854.372076, 0.156860
9864.098590, 0.156874
9874.517241, 0.156888
9884.238873, 0.156903
9894.652288, 0.156919
9904.369027, 0.156934
9914.083402, 0.156950
9924.489032, 0.156965
9934.198499, 0.156980
9944.598867, 0.156996
9954.303417, 0.157012
9964.005590, 0.157028
9974.398135, 0.157044
9984.095376, 0.157062
9994.482631, 0.157079
10004.174930, 0.157097
10014.556890, 0.157115
10024.244230, 0.157134
10033.929190, 0.157153
10044.303260, 0.157173
10053.983250, 0.157193
10064.352000, 0.157213
10074.027010, 0.157234
10084.390430, 0.157255
10094.060450, 0.157277
10104.418520, 0.157299
10114.083550, 0.157321
10124.436250, 0.157343
10134.096280, 0.157366
10144.443620, 0.157388
10154.098620, 0.157411
10164.440580, 0.157435
10174.090560, 0.157459
10184.427130, 0.157483
10194.072080, 0.157508
10204.403250, 0.157532
10214.043150, 0.157557
10224.368910, 0.157582
10234.003750, 0.157607
10244.324090, 0.157633
10253.953860, 0.157659
10264.268770, 0.157686
10273.893470, 0.157712
10284.202930, 0.157739
10293.822550, 0.157766
10304.126560, 0.157794
10313.741080, 0.157822
10324.039630, 0.157850
10334.335340, 0.157879
10343.942110, 0.157908
10354.232340, 0.157937
10363.834000, 0.157967
10374.118740, 0.157996
10383.715270, 0.158025
10393.994510, 0.158054
10404.270900, 0.158084
10413.859620, 0.158114
10424.130500, 0.158144
10433.714070, 0.158174
10443.979410, 0.158205
10454.241900, 0.158236
10463.817630, 0.158267
10474.074570, 0.158299
10483.645120, 0.158330
10493.896500, 0.158362
10504.145010, 0.158393
10513.707690, 0.158425
10523.950630, 0.158457
10534.190680, 0.158489
10543.745450, 0.158521
10553.979920, 0.158553
10564.211490, 0.158585
10573.758350, 0.158618
10583.984320, 0.158651
10593.525940, 0.158685
10603.746300, 0.158719
10613.963750, 0.158753
10624.178290, 0.158787
10633.709240, 0.158822
10643.918150, 0.158857
10654.124140, 0.158892
10663.647090, 0.158927
10673.847430, 0.158963
10684.044850, 0.158999
10693.559790, 0.159036
10703.751540, 0.159072
10713.940350, 0.159109
10723.447260, 0.159146
10733.630400, 0.159184
10743.810590, 0.159221
10753.987830, 0.159259
10763.483930, 0.159298
10773.655480, 0.159337
10783.824070, 0.159376
10793.989700, 0.159416
10803.474950, 0.159455
10813.634860, 0.159495
10823.791800, 0.159536
10833.945780, 0.159577
10843.420140, 0.159618
10853.568380, 0.159660
10863.713630, 0.159702
10873.855910, 0.159745
10883.319350, 0.159788
10893.455860, 0.159831
10903.589380, 0.159875
10913.719920, 0.159919
10923.847460, 0.159963
10933.297140, 0.160008
10943.418890, 0.160054
10953.537640, 0.160099
10963.653390, 0.160145
10973.766130, 0.160192
10983.875860, 0.160239
10993.308900, 0.160286
11003.412810, 0.160333
11013.513700, 0.160380
11023.611570, 0.160426
11033.706420, 0.160471
11043.798250, 0.160515
11053.214560, 0.160559
11063.300530, 0.160602
11073.383460, 0.160645
11083.463370, 0.160688
11093.540230, 0.160731
11103.614050, 0.160773
11113.684830, 0.160816
11123.752560, 0.160859
11133.146350, 0.160902
11143.208190, 0.160945
11153.266960, 0.160989
11163.322680, 0.161033
11173.375340, 0.161076
11183.424940, 0.161119
11193.471470, 0.161161
11203.514930, 0.161201
11213.555320, 0.161241
11223.592630, 0.161279
11233.626870, 0.161316
11243.658030, 0.161353
11253.686100, 0.161389
11263.711090, 0.161425
11273.064960, 0.161462
11283.083980, 0.161499
11293.099910, 0.161536
11303.112740, 0.161574
11313.122470, 0.161613
11323.129090, 0.161652
11333.132620, 0.161691
11343.133030, 0.161731
11353.130340, 0.161772
11363.124530, 0.161813
11373.115610, 0.161854
11383.103580, 0.161897
11393.088420, 0.161939
11403.070130, 0.161981
11413.048720, 0.162024
11423.024180, 0.162065
11432.996510, 0.162107
11442.965710, 0.162148
11452.931770, 0.162189
11463.558770, 0.162230
11473.518340, 0.162269
11483.474760, 0.162308
11493.428030, 0.162346
11503.378150, 0.162385
11513.325120, 0.162424
11523.268930, 0.162462
11533.209580, 0.162502
11543.147070, 0.162541
11553.081400, 0.162580
11563.012560, 0.162619
11572.940550, 0.162658
11582.865360, 0.162697
11593.448330, 0.162735
11603.366580, 0.162773
11613.281650, 0.162811
11623.193530, 0.162849
11633.102230, 0.162887
11643.007740, 0.162925
11652.910060, 0.162964
11662.809180, 0.163002
11673.364720, 0.163041
11683.257230, 0.163080
11693.146540, 0.163119
11703.032640, 0.163159
11712.915540, 0.163198
11722.795220, 0.163237
11733.330010, 0.163276
11743.203040, 0.163314
11753.072860, 0.163353
11762.939460, 0.163391
11772.802830, 0.163430
11783.320200, 0.163469
11793.176900, 0.163508
11803.030360, 0.163548
11812.880590, 0.163588
11822.727580, 0.163629
11833.227470, 0.163671
11843.067760, 0.163713
11852.904800, 0.163755
11862.738590, 0.163798
11873.224390, 0.163841
11883.051450, 0.163885
11892.875260, 0.163929
11902.695810, 0.163973
11913.167470, 0.164017
11922.981270, 0.164060
11932.791810, 0.164103
11942.599070, 0.164146
11953.056540, 0.164189
11962.857040, 0.164232
11972.654250, 0.164275
11983.100990, 0.164319
11992.891420, 0.164363
12002.678560, 0.164407
12013.114550, 0.164451
12022.894880, 0.164495
12032.671920, 0.164539
12043.097130, 0.164584
12052.867350, 0.164629
12062.634260, 0.164674
12073.048660, 0.164721
12082.808740, 0.164767
12092.565500, 0.164814
12102.969060, 0.164862
12112.718970, 0.164911
12122.465560, 0.164959
12132.858260, 0.165007
12142.597980, 0.165056
12152.983340, 0.165105
12162.716180, 0.165155
12172.445680, 0.165205
12182.820130, 0.165255
12192.542730, 0.165306
12202.909820, 0.165357
12212.625510, 0.165408
12222.985230, 0.165459
12232.693990, 0.165511
12242.399410, 0.165563
12252.748150, 0.165616
12262.446620, 0.165669
12272.787960, 0.165723
12282.479480, 0.165777
12292.813390, 0.165832
12302.497960, 0.165887
12312.824440, 0.165943
12322.502030, 0.166000
12332.821060, 0.166056
12342.491670, 0.166113
12352.803250, 0.166171
12362.466860, 0.166229
12372.770970, 0.166287
12382.427570, 0.166347
12392.724200, 0.166406
12402.373780, 0.166464
12412.662920, 0.166522
12422.305470, 0.166579
12432.587110, 0.166636
12442.222620, 0.166691
12452.496730, 0.166746
12462.766970, 0.166799
12472.391780, 0.166852
12482.654480, 0.166905
12492.272220, 0.166958
12502.527380, 0.167011
12512.778630, 0.167064
12522.385630, 0.167116
12532.629320, 0.167169
12542.229220, 0.167221
12552.465330, 0.167274
12562.697530, 0.167327
12572.286650, 0.167380
12582.511250, 0.167434
12592.731920, 0.167489
12602.310240, 0.167544
12612.523300, 0.167600
12622.094470, 0.167656
12632.299910, 0.167712
12642.501400, 0.167770
12652.698950, 0.167828
12662.255570, 0.167887
12672.445470, 0.167946
12682.631420, 0.168006
12692.177150, 0.168067
12702.355440, 0.168129
12712.529750, 0.168190
12722.064580, 0.168253
12732.231210, 0.168315
12742.393870, 0.168377
12752.552560, 0.168440
12762.072710, 0.168503
12772.223690, 0.168566
12782.370680, 0.168630
12792.513690, 0.168694
12802.019130, 0.168758
12812.154400, 0.168822
12822.285680, 0.168887
12832.412950, 0.168951
12842.536220, 0.169016
12852.023150, 0.169080
12862.138660, 0.169145
12872.250160, 0.169211
12882.357640, 0.169277
12892.461100, 0.169344
12901.929440, 0.169411
12912.025110, 0.169478
12922.116750, 0.169546
12932.204360, 0.169615
12942.287940, 0.169683
12952.367470, 0.169753
12962.442970, 0.169822
12971.885080, 0.169892
12981.952740, 0.169963
12992.016350, 0.170033
13002.075910, 0.170104
13012.131410, 0.170175
13022.182860, 0.170248
13032.230240, 0.170320
13042.273560, 0.170393
13052.312810, 0.170467
13062.347990, 0.170542
13072.379090, 0.170617
13081.779550, 0.170692
13091.802750, 0.170769
13101.821860, 0.170847
13111.836890, 0.170925
13121.847830, 0.171003
13131.854680, 0.171083
13141.857430, 0.171162
13151.856080, 0.171240
13161.850630, 0.171319
13171.841070, 0.171398
13181.827400, 0.171476
13191.809630, 0.171553
13201.787740, 0.171632
13211.761720, 0.171710
13221.731590, 0.171788
13231.697340, 0.171867
13241.658950, 0.171946
13252.238650, 0.172025
13262.191740, 0.172105
13272.140700, 0.172186
13282.085520, 0.172266
13292.026190, 0.172346
13301.962720, 0.172427
13311.895100, 0.172509
13321.823330, 0.172593
13331.747400, 0.172677
13341.667310, 0.172762
13351.583060, 0.172848
13362.113980, 0.172935
13372.021140, 0.173021
13381.924130, 0.173109
13391.822940, 0.173197
13401.717580, 0.173286
13411.608030, 0.173375
13422.112060, 0.173465
13431.993880, 0.173555
13441.871510, 0.173644
13451.744950, 0.173734
13461.614200, 0.173824
13472.095670, 0.173915
13481.956250, 0.174007
13491.812630, 0.174100
13501.664790, 0.174194
13511.512750, 0.174288
13521.971580, 0.174383
13531.810840, 0.174479
13541.645880, 0.174576
13551.476690, 0.174673
13561.917300, 0.174772
13571.739400, 0.174870
13581.557250, 0.174968
13591.984090, 0.175066
13601.793210, 0.175163
13611.598080, 0.175260
13621.398710, 0.175357
13631.807220, 0.175453
13641.599090, 0.175548
13651.386690, 0.175645
13661.781360, 0.175742
13671.560180, 0.175841
13681.945510, 0.175940
13691.715530, 0.176040
13701.481280, 0.176141
13711.852710, 0.176243
13721.609640, 0.176346
13731.362300, 0.176449
13741.719800, 0.176554
13751.463610, 0.176659
13761.811720, 0.176765
13771.546680, 0.176870
13781.885380, 0.176977
13791.611480, 0.177085
13801.333280, 0.177195
13811.657980, 0.177306
13821.370890, 0.177419
13831.686150, 0.177532
13841.390170, 0.177647
13851.695960, 0.177763
13861.391080, 0.177880
13871.687400, 0.177997
13881.373590, 0.178116
13891.660430, 0.178233
13901.337690, 0.178351
13911.615020, 0.178470
13921.283340, 0.178590
13931.551160, 0.178711
13941.210510, 0.178834
13951.468810, 0.178957
13961.722190, 0.179081
13971.367950, 0.179203
13981.611790, 0.179324
13991.248550, 0.179445
14001.482830, 0.179565
14011.712170, 0.179685
14021.335290, 0.179807
14031.555050, 0.179930
14041.169140, 0.180053
14051.379310, 0.180179
14061.584530, 0.180307
14071.184930, 0.180436
14081.380530, 0.180567
14091.571180, 0.180700
14101.157850, 0.180835
14111.338860, 0.180971
14121.514910, 0.181108
14131.087820, 0.181248
14141.254210, 0.181390
14151.415610, 0.181532
14161.572040, 0.181674
14171.126470, 0.181816
14181.273210, 0.181958
14191.414960, 0.182100
14201.551710, 0.182240
14211.087620, 0.182381
14221.214660, 0.182521
14231.336690, 0.182664
14241.453710, 0.182810
14250.971030, 0.182957
14261.078310, 0.183106
14271.180570, 0.183256
14281.277810, 0.183406
14291.370010, 0.183557
14301.457180, 0.183709
14310.946390, 0.183863
14321.023790, 0.184020
14331.096140, 0.184178
14341.163440, 0.184338
14351.225700, 0.184501
14361.282900, 0.184664
14371.335040, 0.184830
14381.382130, 0.184998
14391.424150, 0.185167
14400.870830, 0.185338
14410.903010, 0.185511
14420.930110, 0.185684
14430.952140, 0.185856
14440.969080, 0.186029
14450.980940, 0.186201
14460.987710, 0.186375
14470.989390, 0.186549
14480.985970, 0.186724
14490.977450, 0.186902
14500.963830, 0.187080
14510.945100, 0.187262
14520.921270, 0.187446
14530.892320, 0.187629
14540.858250, 0.187811
14550.819060, 0.187993
14560.774750, 0.188173
14571.310480, 0.188351
14581.255610, 0.188530
14591.195610, 0.188708
14601.130460, 0.188889
14611.060180, 0.189070
14620.984750, 0.189251
14630.904170, 0.189432
14640.818440, 0.189612
14650.727550, 0.189793
14661.213930, 0.189975
14671.112420, 0.190160
14681.005740, 0.190341
14690.893890, 0.190519
14700.776870, 0.190694
14710.654670, 0.190865
14721.107870, 0.191031
14730.975000, 0.191192
14740.836950, 0.191351
14750.693700, 0.191513
14761.124610, 0.191673
14770.970660, 0.191837
14780.811520, 0.192003
14790.647170, 0.192174
14801.055710, 0.192348
14810.880640, 0.192525
14820.700340, 0.192700
14831.091990, 0.192872
14840.900950, 0.193041
14850.704690, 0.193208
14861.079410, 0.193370
14870.872370, 0.193527
14880.660100, 0.193682
14891.017860, 0.193837
14900.794800, 0.193994
14910.566490, 0.194150
14920.907260, 0.194305
14930.668130, 0.194461
14940.997440, 0.194618
14950.747490, 0.194777
14960.492270, 0.194930
14970.804530, 0.195075
14980.538460, 0.195216
14990.839220, 0.195361
15000.562290, 0.195510
15010.851540, 0.195660
15020.563730, 0.195813
15030.841460, 0.195968
15040.542750, 0.196116
15050.808940, 0.196261
15060.499320, 0.196406
15070.753950, 0.196554
15080.433420, 0.196706
15090.676470, 0.196857
15100.913570, 0.197008
15110.576470, 0.197158
15120.801970, 0.197315
15130.453910, 0.197474
15140.667800, 0.197634
15150.875710, 0.197797
15160.511030, 0.197965
15170.707310, 0.198139
15180.331630, 0.198317
15190.516260, 0.198499
15200.694890, 0.198688
15210.302530, 0.198878
15220.469500, 0.199067
15230.630450, 0.199259
15240.785390, 0.199454
15250.370640, 0.199646
15260.513880, 0.199836
15270.651090, 0.200020
15280.782270, 0.200198
15290.345070, 0.200367
15300.464520, 0.200523
15310.577930, 0.200668
15320.685300, 0.200807
15330.225590, 0.200940
15340.321190, 0.201066
15350.410730, 0.201184
15360.494220, 0.201294
15370.571640, 0.201402
15380.642990, 0.201507
15390.708270, 0.201604
15400.208790, 0.201698
15410.262250, 0.201797
15420.309630, 0.201901
15430.350920, 0.202007
15440.386120, 0.202116
15450.415220, 0.202225
15460.438230, 0.202339
15470.455130, 0.202457
15480.465920, 0.202568
15490.470600, 0.202667
15500.469170, 0.202756
15510.461610, 0.202853
15520.447940, 0.202956
15530.428130, 0.203061
15540.402200, 0.203163
15550.370130, 0.203258
15560.331920, 0.203344
15570.287570, 0.203422
15580.237070, 0.203486
15590.180420, 0.203550
15600.117610, 0.203614
15610.048650, 0.203686
15620.524720, 0.203762
15630.443090, 0.203838
15640.355280, 0.203907
15650.261300, 0.203971
15660.161140, 0.204017
15670.054800, 0.204032
15680.491400, 0.204014
15690.372340, 0.203958
15700.247080, 0.203884
15710.115630, 0.203791
15719.977970, 0.203690
15730.381490, 0.203567
15740.231070, 0.203435
15750.074440, 0.203287
15759.911590, 0.203112
15770.288500, 0.202905
15780.112860, 0.202687
15789.930980, 0.202440
15800.287800, 0.202148
15810.093110, 0.201834
15819.892180, 0.201488
15830.228860, 0.201093
15840.015090, 0.200635
15850.338210, 0.200098
15860.111580, 0.199479
15869.878690, 0.198740
15880.181610, 0.197831
15889.935840, 0.196756
15900.225160, 0.195452
15909.966480, 0.193821
15920.242180, 0.191762
15929.970590, 0.189084
15940.232640, 0.185574
15949.948120, 0.180878
15960.196520, 0.174282
15969.899050, 0.164235
15980.133770, 0.180878
15989.823340, 0.180878
16000.044360, 0.180878
