# Wavelength  (nm), Transmission (%)
200.000000, 0.002977
201.000000, 0.002888
202.000000, 0.002828
203.000000, 0.002738
204.000000, 0.002669
205.000000, 0.002623
206.000000, 0.002531
207.000000, 0.002475
208.000000, 0.002421
209.000000, 0.002347
210.000000, 0.002344
211.000000, 0.002227
212.000000, 0.002215
213.000000, 0.002161
214.000000, 0.002104
215.000000, 0.002085
216.000000, 0.002036
217.000000, 0.002020
218.000000, 0.002007
219.000000, 0.001976
220.000000, 0.001962
221.000000, 0.001933
222.000000, 0.001902
223.000000, 0.001936
224.000000, 0.001886
225.000000, 0.001872
226.000000, 0.001876
227.000000, 0.001874
228.000000, 0.001828
229.000000, 0.001818
230.000000, 0.001813
231.000000, 0.001818
232.000000, 0.001793
233.000000, 0.001786
234.000000, 0.001763
235.000000, 0.001748
236.000000, 0.001717
237.000000, 0.001713
238.000000, 0.001674
239.000000, 0.001667
240.000000, 0.001651
241.000000, 0.001621
242.000000, 0.001623
243.000000, 0.001630
244.000000, 0.001611
245.000000, 0.001593
246.000000, 0.001590
247.000000, 0.001597
248.000000, 0.001592
249.000000, 0.001567
250.000000, 0.001568
251.000000, 0.001568
252.000000, 0.001562
253.000000, 0.001568
254.000000, 0.001565
255.000000, 0.001571
256.000000, 0.001574
257.000000, 0.001531
258.000000, 0.001561
259.000000, 0.001550
260.000000, 0.001532
261.000000, 0.001519
262.000000, 0.001496
263.000000, 0.001548
264.000000, 0.001503
265.000000, 0.001500
266.000000, 0.001491
267.000000, 0.001472
268.000000, 0.001444
269.000000, 0.001472
270.000000, 0.001460
271.000000, 0.001435
272.000000, 0.001418
273.000000, 0.001410
274.000000, 0.001408
275.000000, 0.001366
276.000000, 0.001377
277.000000, 0.001347
278.000000, 0.001329
279.000000, 0.001345
280.000000, 0.001306
281.000000, 0.001325
282.000000, 0.001249
283.000000, 0.001279
284.000000, 0.001208
285.000000, 0.001200
286.000000, 0.001161
287.000000, 0.001158
288.000000, 0.001111
289.000000, 0.001119
290.000000, 0.001061
291.000000, 0.001031
292.000000, 0.001003
293.000000, 0.000930
294.000000, 0.000933
295.000000, 0.000856
296.000000, 0.000842
297.000000, 0.000783
298.000000, 0.000729
299.000000, 0.000709
300.000000, 0.000663
301.000000, 0.000621
302.000000, 0.000585
303.000000, 0.000533
304.000000, 0.000510
305.000000, 0.000465
306.000000, 0.000410
307.000000, 0.000393
308.000000, 0.000368
309.000000, 0.000355
310.000000, 0.000312
311.000000, 0.000282
312.000000, 0.000261
313.000000, 0.000230
314.000000, 0.000244
315.000000, 0.000181
316.000000, 0.000174
317.000000, 0.000168
318.000000, 0.000150
319.000000, 0.000141
320.000000, 0.000148
321.000000, 0.000114
322.000000, 0.000113
323.000000, 0.000090
324.000000, 0.000105
325.000000, 0.000070
326.000000, 0.000078
327.000000, 0.000062
328.000000, 0.000082
329.000000, 0.000044
330.000000, 0.000072
331.000000, 0.000048
332.000000, 0.000045
333.000000, 0.000037
334.000000, 0.000034
335.000000, 0.000037
336.000000, 0.000036
337.000000, 0.000031
338.000000, 0.000032
339.000000, 0.000034
340.000000, 0.000037
341.000000, 0.000026
342.000000, 0.000038
343.000000, 0.000030
344.000000, 0.000020
345.000000, 0.000017
346.000000, 0.000028
347.000000, 0.000037
348.000000, 0.000011
349.000000, -0.000102
350.000000, 0.000050
351.000000, 0.000043
352.000000, 0.000045
353.000000, 0.000042
354.000000, 0.000052
355.000000, 0.000035
356.000000, 0.000051
357.000000, 0.000054
358.000000, 0.000046
359.000000, 0.000069
360.000000, 0.000051
361.000000, 0.000065
362.000000, 0.000084
363.000000, 0.000081
364.000000, 0.000088
365.000000, 0.000097
366.000000, 0.000095
367.000000, 0.000101
368.000000, 0.000121
369.000000, 0.000136
370.000000, 0.000147
371.000000, 0.000154
372.000000, 0.000144
373.000000, 0.000131
374.000000, 0.000144
375.000000, 0.000168
376.000000, 0.000182
377.000000, 0.000188
378.000000, 0.000161
379.000000, 0.000127
380.000000, 0.000139
381.000000, 0.000129
382.000000, 0.000164
383.000000, 0.000160
384.000000, 0.000121
385.000000, 0.000101
386.000000, 0.000094
387.000000, 0.000105
388.000000, 0.000100
389.000000, 0.000074
390.000000, 0.000055
391.000000, 0.000057
392.000000, 0.000039
393.000000, 0.000042
394.000000, 0.000033
395.000000, 0.000039
396.000000, 0.000042
397.000000, 0.000035
398.000000, 0.000036
399.000000, 0.000041
400.000000, 0.000030
401.000000, 0.000039
402.000000, 0.000033
403.000000, 0.000038
404.000000, 0.000044
405.000000, 0.000020
406.000000, 0.000032
407.000000, 0.000039
408.000000, 0.000033
409.000000, 0.000027
410.000000, 0.000034
411.000000, 0.000035
412.000000, 0.000034
413.000000, 0.000026
414.000000, 0.000039
415.000000, 0.000032
416.000000, 0.000032
417.000000, 0.000028
418.000000, 0.000029
419.000000, 0.000028
420.000000, 0.000026
421.000000, 0.000034
422.000000, 0.000037
423.000000, 0.000024
424.000000, 0.000018
425.000000, 0.000031
426.000000, 0.000028
427.000000, 0.000027
428.000000, 0.000026
429.000000, 0.000030
430.000000, 0.000029
431.000000, 0.000021
432.000000, 0.000033
433.000000, 0.000035
434.000000, 0.000035
435.000000, 0.000031
436.000000, 0.000021
437.000000, 0.000033
438.000000, 0.000029
439.000000, 0.000031
440.000000, 0.000025
441.000000, 0.000024
442.000000, 0.000012
443.000000, 0.000030
444.000000, 0.000032
445.000000, 0.000027
446.000000, 0.000039
447.000000, 0.000031
448.000000, 0.000026
449.000000, 0.000025
450.000000, 0.000032
451.000000, 0.000024
452.000000, 0.000027
453.000000, 0.000027
454.000000, 0.000027
455.000000, 0.000024
456.000000, 0.000033
457.000000, 0.000025
458.000000, 0.000022
459.000000, 0.000031
460.000000, 0.000026
461.000000, 0.000027
462.000000, 0.000027
463.000000, 0.000020
464.000000, 0.000034
465.000000, 0.000026
466.000000, 0.000024
467.000000, 0.000030
468.000000, 0.000022
469.000000, 0.000027
470.000000, 0.000029
471.000000, 0.000025
472.000000, 0.000029
473.000000, 0.000021
474.000000, 0.000021
475.000000, 0.000032
476.000000, 0.000031
477.000000, 0.000028
478.000000, 0.000023
479.000000, 0.000025
480.000000, 0.000024
481.000000, 0.000024
482.000000, 0.000020
483.000000, 0.000021
484.000000, 0.000028
485.000000, 0.000024
486.000000, 0.000019
487.000000, 0.000020
488.000000, 0.000023
489.000000, 0.000022
490.000000, 0.000026
491.000000, 0.000023
492.000000, 0.000022
493.000000, 0.000025
494.000000, 0.000027
495.000000, 0.000016
496.000000, 0.000025
497.000000, 0.000016
498.000000, 0.000027
499.000000, 0.000025
500.000000, 0.000016
501.000000, 0.000024
502.000000, 0.000021
503.000000, 0.000026
504.000000, 0.000032
505.000000, 0.000017
506.000000, 0.000029
507.000000, 0.000024
508.000000, 0.000026
509.000000, 0.000033
510.000000, 0.000028
511.000000, 0.000030
512.000000, 0.000030
513.000000, 0.000036
514.000000, 0.000033
515.000000, 0.000029
516.000000, 0.000038
517.000000, 0.000037
518.000000, 0.000039
519.000000, 0.000042
520.000000, 0.000040
521.000000, 0.000038
522.000000, 0.000048
523.000000, 0.000041
524.000000, 0.000046
525.000000, 0.000049
526.000000, 0.000059
527.000000, 0.000059
528.000000, 0.000067
529.000000, 0.000072
530.000000, 0.000089
531.000000, 0.000101
532.000000, 0.000136
533.000000, 0.000174
534.000000, 0.000253
535.000000, 0.000383
536.000000, 0.000598
537.000000, 0.000944
538.000000, 0.001551
539.000000, 0.002659
540.000000, 0.004655
541.000000, 0.008347
542.000000, 0.015430
543.000000, 0.029448
544.000000, 0.058652
545.000000, 0.122715
546.000000, 0.269555
547.000000, 0.631937
548.000000, 1.598103
549.000000, 4.351990
550.000000, 11.997194
551.000000, 29.198322
552.000000, 55.131577
553.000000, 76.677040
554.000000, 85.186630
555.000000, 85.382347
556.000000, 84.626968
557.000000, 85.069649
558.000000, 85.897621
559.000000, 86.404106
560.000000, 86.591927
561.000000, 86.683876
562.000000, 86.803085
563.000000, 87.141327
564.000000, 87.594521
565.000000, 88.156357
566.000000, 88.672668
567.000000, 89.052643
568.000000, 89.298607
569.000000, 89.347832
570.000000, 89.282692
571.000000, 89.227737
572.000000, 89.083755
573.000000, 88.976120
574.000000, 88.870308
575.000000, 88.720718
576.000000, 88.583397
577.000000, 88.412384
578.000000, 88.204521
579.000000, 88.047234
580.000000, 87.892464
581.000000, 87.773262
582.000000, 87.713448
583.000000, 87.752396
584.000000, 87.899818
585.000000, 88.098038
586.000000, 88.435554
587.000000, 88.758759
588.000000, 89.090607
589.000000, 89.386299
590.000000, 89.577965
591.000000, 89.683487
592.000000, 89.643875
593.000000, 89.513031
594.000000, 89.268929
595.000000, 88.936653
596.000000, 88.503708
597.000000, 88.116615
598.000000, 87.758675
599.000000, 87.440620
600.000000, 87.208099
601.000000, 87.072464
602.000000, 87.062500
603.000000, 87.208931
604.000000, 87.434555
605.000000, 87.767998
606.000000, 88.162582
607.000000, 88.588730
608.000000, 88.999092
609.000000, 89.422043
610.000000, 89.756432
611.000000, 90.074554
612.000000, 90.258430
613.000000, 90.335617
614.000000, 90.318909
615.000000, 90.223381
616.000000, 90.037254
617.000000, 89.816620
618.000000, 89.580826
619.000000, 89.330826
620.000000, 89.132050
621.000000, 88.943687
622.000000, 88.817612
623.000000, 88.763435
624.000000, 88.805702
625.000000, 88.889542
626.000000, 89.045921
627.000000, 89.231865
628.000000, 89.486855
629.000000, 89.700020
630.000000, 89.966881
631.000000, 90.158981
632.000000, 90.284607
633.000000, 90.370941
634.000000, 90.378143
635.000000, 90.288773
636.000000, 90.094955
637.000000, 89.874222
638.000000, 89.557190
639.000000, 89.162224
640.000000, 88.755455
641.000000, 88.269394
642.000000, 87.793877
643.000000, 87.372330
644.000000, 87.002266
645.000000, 86.647499
646.000000, 86.376762
647.000000, 86.157089
648.000000, 86.029877
649.000000, 86.029121
650.000000, 86.052635
651.000000, 86.249199
652.000000, 86.429749
653.000000, 86.724678
654.000000, 87.093178
655.000000, 87.493889
656.000000, 87.888611
657.000000, 88.327614
658.000000, 88.760170
659.000000, 89.160271
660.000000, 89.515984
661.000000, 89.828697
662.000000, 90.065277
663.000000, 90.183090
664.000000, 90.295448
665.000000, 90.267105
666.000000, 90.206512
667.000000, 90.045021
668.000000, 89.848930
669.000000, 89.548790
670.000000, 89.232849
671.000000, 88.938110
672.000000, 88.548859
673.000000, 88.203308
674.000000, 87.878204
675.000000, 87.590103
676.000000, 87.308456
677.000000, 87.091690
678.000000, 86.911812
679.000000, 86.763626
680.000000, 86.680313
681.000000, 86.707779
682.000000, 86.739586
683.000000, 86.854691
684.000000, 86.990562
685.000000, 87.143501
686.000000, 87.368668
687.000000, 87.654449
688.000000, 87.876167
689.000000, 88.171585
690.000000, 88.420792
691.000000, 88.731140
692.000000, 89.006088
693.000000, 89.216354
694.000000, 89.447708
695.000000, 89.595909
696.000000, 89.747627
697.000000, 89.857941
698.000000, 89.957901
699.000000, 89.964500
700.000000, 89.980820
701.000000, 89.971298
702.000000, 89.894814
703.000000, 89.823547
704.000000, 89.693901
705.000000, 89.658150
706.000000, 89.529861
707.000000, 89.404976
708.000000, 89.270653
709.000000, 89.228615
710.000000, 89.129135
711.000000, 89.052925
712.000000, 88.981186
713.000000, 88.926399
714.000000, 88.896774
715.000000, 88.908234
716.000000, 88.932541
717.000000, 88.933868
718.000000, 89.069458
719.000000, 89.084663
720.000000, 89.124008
721.000000, 89.263496
722.000000, 89.287796
723.000000, 89.372154
724.000000, 89.466385
725.000000, 89.449654
726.000000, 89.553383
727.000000, 89.545937
728.000000, 89.597389
729.000000, 89.593056
730.000000, 89.540192
731.000000, 89.566078
732.000000, 89.452538
733.000000, 89.346245
734.000000, 89.232712
735.000000, 89.139000
736.000000, 88.996796
737.000000, 88.898537
738.000000, 88.739685
739.000000, 88.562973
740.000000, 88.415924
741.000000, 88.259850
742.000000, 88.104134
743.000000, 88.013611
744.000000, 87.881569
745.000000, 87.756790
746.000000, 87.700226
747.000000, 87.666145
748.000000, 87.609116
749.000000, 87.611244
750.000000, 87.542877
751.000000, 87.640221
752.000000, 87.701797
753.000000, 87.807373
754.000000, 87.779304
755.000000, 87.922134
756.000000, 88.148079
757.000000, 88.234322
758.000000, 88.412697
759.000000, 88.532822
760.000000, 88.685509
761.000000, 88.864059
762.000000, 88.975189
763.000000, 89.156792
764.000000, 89.268120
765.000000, 89.409111
766.000000, 89.576027
767.000000, 89.640266
768.000000, 89.703934
769.000000, 89.730591
770.000000, 89.829155
771.000000, 89.812019
772.000000, 89.748833
773.000000, 89.680984
774.000000, 89.643723
775.000000, 89.676109
776.000000, 89.515991
777.000000, 89.394249
778.000000, 89.203743
779.000000, 89.149635
780.000000, 89.031639
781.000000, 88.837456
782.000000, 88.668350
783.000000, 88.492599
784.000000, 88.357841
785.000000, 88.210167
786.000000, 88.055733
787.000000, 87.867622
788.000000, 87.821922
789.000000, 87.714943
790.000000, 87.581947
791.000000, 87.536102
792.000000, 87.411041
793.000000, 87.485985
794.000000, 87.455139
795.000000, 87.358162
796.000000, 87.410110
797.000000, 87.479179
798.000000, 87.478363
799.000000, 87.482605
800.000000, 87.306770
801.000000, 87.366394
802.000000, 87.488243
803.000000, 87.546661
804.000000, 87.690140
805.000000, 87.862480
806.000000, 87.998062
807.000000, 88.142136
808.000000, 88.196785
809.000000, 88.426460
810.000000, 88.475311
811.000000, 88.540062
812.000000, 88.652573
813.000000, 88.716507
814.000000, 88.764175
815.000000, 88.743744
816.000000, 88.868202
817.000000, 88.913086
818.000000, 88.932014
819.000000, 88.905167
820.000000, 88.909988
821.000000, 88.907341
822.000000, 88.767670
823.000000, 88.675278
824.000000, 88.604042
825.000000, 88.454201
826.000000, 88.381126
827.000000, 88.284607
828.000000, 88.035416
829.000000, 87.920670
830.000000, 87.850937
831.000000, 87.707207
832.000000, 87.417343
833.000000, 87.294960
834.000000, 87.169624
835.000000, 86.916466
836.000000, 86.787277
837.000000, 86.700180
838.000000, 86.513565
839.000000, 86.417084
840.000000, 86.389030
841.000000, 86.256119
842.000000, 86.114792
843.000000, 86.021439
844.000000, 85.926750
845.000000, 85.949829
846.000000, 86.039558
847.000000, 85.922211
848.000000, 85.957764
849.000000, 85.958847
850.000000, 86.077728
851.000000, 86.054688
852.000000, 86.081284
853.000000, 86.129303
854.000000, 86.160538
855.000000, 86.454079
856.000000, 86.440208
857.000000, 86.506317
858.000000, 86.613358
859.000000, 86.756203
860.000000, 86.865128
861.000000, 87.078415
862.000000, 87.160667
863.000000, 87.333435
864.000000, 87.408287
865.000000, 87.424568
866.000000, 87.571159
867.000000, 87.624207
868.000000, 87.772217
869.000000, 87.900848
870.000000, 87.879845
871.000000, 87.961472
872.000000, 88.060493
873.000000, 87.967148
874.000000, 88.147957
875.000000, 88.114319
876.000000, 88.076546
877.000000, 88.120880
878.000000, 88.111771
879.000000, 88.106750
880.000000, 87.964920
881.000000, 87.885277
882.000000, 87.837090
883.000000, 87.746460
884.000000, 87.651619
885.000000, 87.591881
886.000000, 87.382339
887.000000, 87.358597
888.000000, 87.235222
889.000000, 87.063858
890.000000, 86.999741
891.000000, 86.784271
892.000000, 86.756226
893.000000, 86.686089
894.000000, 86.515686
895.000000, 86.332718
896.000000, 86.188881
897.000000, 86.087410
898.000000, 85.945908
899.000000, 85.960915
900.000000, 85.918083
901.000000, 85.857895
902.000000, 85.768959
903.000000, 85.723999
904.000000, 85.666672
905.000000, 85.559212
906.000000, 85.589531
907.000000, 85.631599
908.000000, 85.511520
909.000000, 85.578011
910.000000, 85.627342
911.000000, 85.661598
912.000000, 85.663208
913.000000, 85.832748
914.000000, 85.797432
915.000000, 85.723007
916.000000, 86.020401
917.000000, 86.007263
918.000000, 86.098099
919.000000, 86.131882
920.000000, 86.295715
921.000000, 86.390892
922.000000, 86.627167
923.000000, 86.582153
924.000000, 86.768677
925.000000, 86.935768
926.000000, 86.964233
927.000000, 87.102814
928.000000, 87.224861
929.000000, 87.327827
930.000000, 87.410156
931.000000, 87.515961
932.000000, 87.571655
933.000000, 87.602959
934.000000, 87.916054
935.000000, 87.858543
936.000000, 87.859497
937.000000, 87.872276
938.000000, 88.007645
939.000000, 88.044899
940.000000, 88.016663
941.000000, 88.032768
942.000000, 88.010834
943.000000, 88.135971
944.000000, 88.066811
945.000000, 88.099625
946.000000, 87.988029
947.000000, 87.993057
948.000000, 87.963303
949.000000, 87.778152
950.000000, 87.846558
951.000000, 87.777191
952.000000, 87.792458
953.000000, 87.626305
954.000000, 87.625908
955.000000, 87.582222
956.000000, 87.411400
957.000000, 87.333603
958.000000, 87.273277
959.000000, 87.246338
960.000000, 87.125656
961.000000, 87.006432
962.000000, 86.983780
963.000000, 86.977905
964.000000, 86.800072
965.000000, 86.799049
966.000000, 86.770004
967.000000, 86.626045
968.000000, 86.595383
969.000000, 86.534729
970.000000, 86.487656
971.000000, 86.425850
972.000000, 86.342949
973.000000, 86.363281
974.000000, 86.399185
975.000000, 86.374542
976.000000, 86.295486
977.000000, 86.212990
978.000000, 86.224129
979.000000, 86.301796
980.000000, 86.304596
981.000000, 86.317665
982.000000, 86.284119
983.000000, 86.397018
984.000000, 86.480606
985.000000, 86.404678
986.000000, 86.556587
987.000000, 86.593285
988.000000, 86.610451
989.000000, 86.706436
990.000000, 86.630394
991.000000, 86.785263
992.000000, 86.718208
993.000000, 86.897430
994.000000, 86.988823
995.000000, 87.041702
996.000000, 87.180473
997.000000, 87.163437
998.000000, 87.231140
999.000000, 87.254539
1000.000000, 87.384956
1001.000000, 87.393120
1002.000000, 87.478210
1003.000000, 87.537804
1004.000000, 87.562416
1005.000000, 87.674400
1006.000000, 87.717751
1007.000000, 87.725525
1008.000000, 87.791649
1009.000000, 87.774178
1010.000000, 87.817451
1011.000000, 87.811935
1012.000000, 87.819878
1013.000000, 87.816856
1014.000000, 87.764534
1015.000000, 87.818565
1016.000000, 87.869766
1017.000000, 87.750473
1018.000000, 87.791405
1019.000000, 87.774490
1020.000000, 87.814491
1021.000000, 87.738091
1022.000000, 87.682953
1023.000000, 87.633392
1024.000000, 87.468407
1025.000000, 87.589455
1026.000000, 87.427879
1027.000000, 87.286507
1028.000000, 87.204590
1029.000000, 87.173363
1030.000000, 87.128777
1031.000000, 87.061104
1032.000000, 86.954048
1033.000000, 86.868240
1034.000000, 86.820244
1035.000000, 86.740623
1036.000000, 86.581139
1037.000000, 86.564644
1038.000000, 86.398575
1039.000000, 86.377701
1040.000000, 86.263741
1041.000000, 86.079338
1042.000000, 85.991730
1043.000000, 85.871071
1044.000000, 85.900337
1045.000000, 85.860840
1046.000000, 85.803108
1047.000000, 85.523445
1048.000000, 85.593605
1049.000000, 85.497734
1050.000000, 85.529114
1051.000000, 85.388809
1052.000000, 85.294014
1053.000000, 85.239532
1054.000000, 85.160851
1055.000000, 85.235558
1056.000000, 85.144043
1057.000000, 85.111565
1058.000000, 85.024048
1059.000000, 84.999664
1060.000000, 85.070358
1061.000000, 85.114883
1062.000000, 85.046806
1063.000000, 85.037498
1064.000000, 85.085777
1065.000000, 85.061852
1066.000000, 85.159019
1067.000000, 85.078888
1068.000000, 85.064079
1069.000000, 85.211983
1070.000000, 85.160355
1071.000000, 85.263016
1072.000000, 85.252472
1073.000000, 85.348610
1074.000000, 85.372681
1075.000000, 85.401108
1076.000000, 85.504463
1077.000000, 85.534714
1078.000000, 85.616035
1079.000000, 85.631989
1080.000000, 85.711113
1081.000000, 85.856506
1082.000000, 85.851028
1083.000000, 85.922997
1084.000000, 85.954323
1085.000000, 86.066734
1086.000000, 86.100922
1087.000000, 86.193130
1088.000000, 86.285759
1089.000000, 86.324760
1090.000000, 86.407562
1091.000000, 86.550194
1092.000000, 86.633392
1093.000000, 86.748535
1094.000000, 86.718643
1095.000000, 86.840225
1096.000000, 86.932693
1097.000000, 87.023178
1098.000000, 87.025650
1099.000000, 87.132881
1100.000000, 87.256447
1101.000000, 87.234459
1102.000000, 87.222900
1103.000000, 87.487968
1104.000000, 87.417801
1105.000000, 87.364906
1106.000000, 87.570335
1107.000000, 87.570938
1108.000000, 87.593040
1109.000000, 87.568085
1110.000000, 87.560432
1111.000000, 87.596474
1112.000000, 87.660179
1113.000000, 87.670303
1114.000000, 87.701172
1115.000000, 87.836716
1116.000000, 87.764580
1117.000000, 87.682037
1118.000000, 87.693802
1119.000000, 87.745735
1120.000000, 87.676582
1121.000000, 87.643883
1122.000000, 87.539124
1123.000000, 87.628052
1124.000000, 87.563690
1125.000000, 87.393661
1126.000000, 87.397964
1127.000000, 87.356911
1128.000000, 87.319275
1129.000000, 87.217918
1130.000000, 87.134323
1131.000000, 87.120834
1132.000000, 87.008492
1133.000000, 86.909660
1134.000000, 86.916618
1135.000000, 86.848564
1136.000000, 86.810425
1137.000000, 86.743668
1138.000000, 86.679413
1139.000000, 86.588928
1140.000000, 86.590591
1141.000000, 86.618973
1142.000000, 86.454765
1143.000000, 86.533234
1144.000000, 86.471024
1145.000000, 86.435020
1146.000000, 86.322472
1147.000000, 86.311661
1148.000000, 86.328552
1149.000000, 86.272141
1150.000000, 86.229912
1151.000000, 86.237251
1152.000000, 86.162445
1153.000000, 86.118034
1154.000000, 86.092606
1155.000000, 86.093788
1156.000000, 86.115379
1157.000000, 85.931000
1158.000000, 86.001060
1159.000000, 85.896629
1160.000000, 85.949234
1161.000000, 85.768112
1162.000000, 85.787834
1163.000000, 85.815498
1164.000000, 85.896545
1165.000000, 85.751907
1166.000000, 85.734825
1167.000000, 85.717934
1168.000000, 85.757355
1169.000000, 85.626297
1170.000000, 85.637077
1171.000000, 85.595284
1172.000000, 85.558144
1173.000000, 85.526321
1174.000000, 85.545387
1175.000000, 85.484245
1176.000000, 85.500473
1177.000000, 85.449379
1178.000000, 85.485779
1179.000000, 85.387283
1180.000000, 85.471550
1181.000000, 85.501404
1182.000000, 85.358879
1183.000000, 85.370918
1184.000000, 85.389915
1185.000000, 85.313568
1186.000000, 85.303284
1187.000000, 85.310898
1188.000000, 85.184845
1189.000000, 85.245590
1190.000000, 85.283485
1191.000000, 85.275230
1192.000000, 85.362358
1193.000000, 85.393593
1194.000000, 85.424820
1195.000000, 85.495071
1196.000000, 85.481270
1197.000000, 85.506020
1198.000000, 85.595551
1199.000000, 85.728371
1200.000000, 85.807098
1201.000000, 85.831032
1202.000000, 85.782684
1203.000000, 85.913925
1204.000000, 85.908249
1205.000000, 85.889000
1206.000000, 85.952698
1207.000000, 85.985428
1208.000000, 86.105461
1209.000000, 86.156853
1210.000000, 86.118279
1211.000000, 86.193268
1212.000000, 86.268845
1213.000000, 86.318008
1214.000000, 86.326721
1215.000000, 86.214371
1216.000000, 86.355392
1217.000000, 86.448639
1218.000000, 86.362480
1219.000000, 86.644974
1220.000000, 86.392067
1221.000000, 86.526283
1222.000000, 86.657303
1223.000000, 86.629913
1224.000000, 86.671318
1225.000000, 86.729156
1226.000000, 86.762222
1227.000000, 86.764587
1228.000000, 86.826447
1229.000000, 86.878624
1230.000000, 86.831787
1231.000000, 87.008324
1232.000000, 86.924110
1233.000000, 86.884514
1234.000000, 86.971458
1235.000000, 86.941849
1236.000000, 87.012894
1237.000000, 87.093391
1238.000000, 87.010200
1239.000000, 87.056435
1240.000000, 87.166779
1241.000000, 87.143417
1242.000000, 87.213226
1243.000000, 87.151802
1244.000000, 87.194054
1245.000000, 87.230820
1246.000000, 87.167702
1247.000000, 87.151703
1248.000000, 87.143562
1249.000000, 87.352142
1250.000000, 87.243668
1251.000000, 87.278580
1252.000000, 87.163216
1253.000000, 87.361702
1254.000000, 87.288284
1255.000000, 87.296204
1256.000000, 87.267014
1257.000000, 87.430176
1258.000000, 87.292625
1259.000000, 87.330963
1260.000000, 87.346832
1261.000000, 87.388206
1262.000000, 87.294945
1263.000000, 87.397858
1264.000000, 87.465866
1265.000000, 87.491989
1266.000000, 87.322464
1267.000000, 87.473999
1268.000000, 87.404404
1269.000000, 87.488922
1270.000000, 87.573883
1271.000000, 87.511955
1272.000000, 87.454735
1273.000000, 87.454681
1274.000000, 87.460602
1275.000000, 87.513329
1276.000000, 87.491211
1277.000000, 87.593033
1278.000000, 87.544350
1279.000000, 87.619957
1280.000000, 87.617119
1281.000000, 87.578949
1282.000000, 87.548409
1283.000000, 87.597748
1284.000000, 87.641388
1285.000000, 87.748207
1286.000000, 87.665215
1287.000000, 87.656807
1288.000000, 87.674301
1289.000000, 87.650848
1290.000000, 87.681587
1291.000000, 87.656006
1292.000000, 87.713470
1293.000000, 87.699364
1294.000000, 87.737900
1295.000000, 87.664124
1296.000000, 87.693169
1297.000000, 87.732620
1298.000000, 87.798302
1299.000000, 87.874184
1300.000000, 87.733734
1301.000000, 87.846481
1302.000000, 87.817978
1303.000000, 87.801392
1304.000000, 87.834236
1305.000000, 87.811020
1306.000000, 87.792175
1307.000000, 87.766090
1308.000000, 87.816711
1309.000000, 87.788651
1310.000000, 87.865746
1311.000000, 87.799713
1312.000000, 87.741417
1313.000000, 87.731880
1314.000000, 87.883781
1315.000000, 87.832207
1316.000000, 87.891182
1317.000000, 87.838257
1318.000000, 87.793495
1319.000000, 87.871056
1320.000000, 87.767670
1321.000000, 87.750427
1322.000000, 87.760719
1323.000000, 87.787598
1324.000000, 87.692444
1325.000000, 87.768349
1326.000000, 87.807083
1327.000000, 87.626961
1328.000000, 87.730629
1329.000000, 87.678818
1330.000000, 87.723198
1331.000000, 87.645607
1332.000000, 87.724182
1333.000000, 87.636009
1334.000000, 87.747070
1335.000000, 87.616776
1336.000000, 87.606400
1337.000000, 87.555954
1338.000000, 87.583405
1339.000000, 87.576141
1340.000000, 87.504944
1341.000000, 87.560120
1342.000000, 87.448036
1343.000000, 87.396324
1344.000000, 87.427101
1345.000000, 87.434563
1346.000000, 87.341377
1347.000000, 87.363640
1348.000000, 87.351624
1349.000000, 87.165527
1350.000000, 87.221596
1351.000000, 87.204338
1352.000000, 87.200150
1353.000000, 86.978355
1354.000000, 87.018219
1355.000000, 87.035316
1356.000000, 86.918434
1357.000000, 86.836311
1358.000000, 86.800499
1359.000000, 86.857002
1360.000000, 86.771545
1361.000000, 86.699036
1362.000000, 86.575005
1363.000000, 86.625252
1364.000000, 86.567902
1365.000000, 86.557442
1366.000000, 86.512779
1367.000000, 86.507019
1368.000000, 86.352669
1369.000000, 86.382851
1370.000000, 86.327400
1371.000000, 86.301025
1372.000000, 86.322975
1373.000000, 86.163971
1374.000000, 86.125824
1375.000000, 86.036255
1376.000000, 86.026909
1377.000000, 86.046951
1378.000000, 85.940208
1379.000000, 85.892319
1380.000000, 85.806725
1381.000000, 85.855896
1382.000000, 85.812363
1383.000000, 85.765015
1384.000000, 85.821709
1385.000000, 85.672798
1386.000000, 85.694244
1387.000000, 85.577614
1388.000000, 85.601768
1389.000000, 85.537628
1390.000000, 85.454544
1391.000000, 85.540787
1392.000000, 85.466118
1393.000000, 85.459129
1394.000000, 85.403076
1395.000000, 85.376816
1396.000000, 85.288864
1397.000000, 85.332909
1398.000000, 85.357719
1399.000000, 85.302528
1400.000000, 85.230461
1401.000000, 85.283501
1402.000000, 85.282623
1403.000000, 85.231277
1404.000000, 85.227051
1405.000000, 85.192505
1406.000000, 85.186974
1407.000000, 84.999184
1408.000000, 85.148827
1409.000000, 85.028580
1410.000000, 85.054039
1411.000000, 84.952248
1412.000000, 84.889946
1413.000000, 84.785637
1414.000000, 84.729134
1415.000000, 84.675522
1416.000000, 84.733025
1417.000000, 84.534149
1418.000000, 84.475464
1419.000000, 84.402840
1420.000000, 84.250572
1421.000000, 84.133026
1422.000000, 84.033798
1423.000000, 83.929482
1424.000000, 83.828125
1425.000000, 83.818283
1426.000000, 83.762329
1427.000000, 83.845245
1428.000000, 83.796623
1429.000000, 83.828682
1430.000000, 83.772720
1431.000000, 83.835342
1432.000000, 83.939011
1433.000000, 83.854805
1434.000000, 84.052170
1435.000000, 84.017174
1436.000000, 84.156563
1437.000000, 84.207886
1438.000000, 84.226624
1439.000000, 84.337029
1440.000000, 84.346184
1441.000000, 84.300789
1442.000000, 84.425850
1443.000000, 84.477859
1444.000000, 84.621689
1445.000000, 84.702774
1446.000000, 84.636841
1447.000000, 84.741173
1448.000000, 84.675056
1449.000000, 84.857719
1450.000000, 84.838173
1451.000000, 84.880783
1452.000000, 84.939888
1453.000000, 84.937271
1454.000000, 85.002014
1455.000000, 85.013222
1456.000000, 85.122482
1457.000000, 85.054344
1458.000000, 85.176758
1459.000000, 85.127075
1460.000000, 85.269508
1461.000000, 85.246178
1462.000000, 85.286880
1463.000000, 85.315742
1464.000000, 85.369308
1465.000000, 85.342812
1466.000000, 85.344009
1467.000000, 85.474777
1468.000000, 85.446297
1469.000000, 85.504448
1470.000000, 85.472755
1471.000000, 85.647675
1472.000000, 85.714188
1473.000000, 85.604897
1474.000000, 85.705727
1475.000000, 85.596947
1476.000000, 85.785507
1477.000000, 85.849556
1478.000000, 85.778587
1479.000000, 85.837372
1480.000000, 85.850777
1481.000000, 85.913963
1482.000000, 85.945274
1483.000000, 86.053055
1484.000000, 86.020889
1485.000000, 86.148659
1486.000000, 86.063332
1487.000000, 86.103180
1488.000000, 86.125664
1489.000000, 86.250336
1490.000000, 86.161324
1491.000000, 86.273651
1492.000000, 86.136772
1493.000000, 86.288383
1494.000000, 86.432091
1495.000000, 86.400436
1496.000000, 86.339554
1497.000000, 86.381279
1498.000000, 86.349899
1499.000000, 86.550301
1500.000000, 86.574417
1501.000000, 86.511650
1502.000000, 86.489830
1503.000000, 86.446365
1504.000000, 86.558388
1505.000000, 86.623428
1506.000000, 86.651009
1507.000000, 86.639427
1508.000000, 86.517799
1509.000000, 86.699722
1510.000000, 86.613106
1511.000000, 86.704491
1512.000000, 86.524323
1513.000000, 86.627457
1514.000000, 86.661736
1515.000000, 86.723373
1516.000000, 86.611298
1517.000000, 86.506012
1518.000000, 86.534431
1519.000000, 86.605492
1520.000000, 86.515617
1521.000000, 86.466827
1522.000000, 86.465248
1523.000000, 86.469681
1524.000000, 86.373726
1525.000000, 86.355133
1526.000000, 86.402420
1527.000000, 86.456596
1528.000000, 86.266098
1529.000000, 86.271294
1530.000000, 86.217636
1531.000000, 86.194580
1532.000000, 86.136475
1533.000000, 86.078697
1534.000000, 86.054359
1535.000000, 86.044357
1536.000000, 86.024506
1537.000000, 86.132713
1538.000000, 86.099152
1539.000000, 86.057816
1540.000000, 86.068298
1541.000000, 86.085800
1542.000000, 86.163010
1543.000000, 86.062080
1544.000000, 86.105431
1545.000000, 86.139038
1546.000000, 86.191277
1547.000000, 86.227341
1548.000000, 86.349281
1549.000000, 86.310577
1550.000000, 86.401161
1551.000000, 86.420372
1552.000000, 86.475525
1553.000000, 86.605164
1554.000000, 86.599182
1555.000000, 86.655586
1556.000000, 86.726852
1557.000000, 86.783875
1558.000000, 86.813721
1559.000000, 86.826309
1560.000000, 86.871307
1561.000000, 86.727730
1562.000000, 86.839073
1563.000000, 86.844704
1564.000000, 86.792755
1565.000000, 86.935318
1566.000000, 86.873199
1567.000000, 86.875168
1568.000000, 86.909798
1569.000000, 86.947243
1570.000000, 86.937004
1571.000000, 86.976868
1572.000000, 86.881729
1573.000000, 86.906395
1574.000000, 86.898354
1575.000000, 86.763870
1576.000000, 86.831268
1577.000000, 86.805672
1578.000000, 86.893417
1579.000000, 86.811310
1580.000000, 86.777077
1581.000000, 86.835411
1582.000000, 86.689545
1583.000000, 86.757568
1584.000000, 86.882645
1585.000000, 86.790970
1586.000000, 86.760796
1587.000000, 86.813263
1588.000000, 86.881325
1589.000000, 86.744881
1590.000000, 86.802933
1591.000000, 86.750031
1592.000000, 86.834923
1593.000000, 86.677521
1594.000000, 86.721222
1595.000000, 86.749115
1596.000000, 86.791855
1597.000000, 86.639107
1598.000000, 86.743507
1599.000000, 86.748711
1600.000000, 86.776283
1601.000000, 86.703819
1602.000000, 86.762321
1603.000000, 86.729691
1604.000000, 86.709007
1605.000000, 86.686104
1606.000000, 86.672050
1607.000000, 86.792946
1608.000000, 86.761047
1609.000000, 86.738480
1610.000000, 86.769867
1611.000000, 86.663254
1612.000000, 86.658142
1613.000000, 86.711044
1614.000000, 86.648590
1615.000000, 86.702904
1616.000000, 86.651489
1617.000000, 86.566574
1618.000000, 86.560791
1619.000000, 86.660721
1620.000000, 86.702141
1621.000000, 86.582954
1622.000000, 86.545853
1623.000000, 86.675003
1624.000000, 86.696426
1625.000000, 86.689041
1626.000000, 86.582741
1627.000000, 86.696602
1628.000000, 86.696030
1629.000000, 86.574371
1630.000000, 86.585899
1631.000000, 86.574013
1632.000000, 86.526756
1633.000000, 86.503075
1634.000000, 86.455605
1635.000000, 86.377945
1636.000000, 86.399643
1637.000000, 86.380150
1638.000000, 86.302528
1639.000000, 86.360840
1640.000000, 86.393730
1641.000000, 86.349411
1642.000000, 86.218620
1643.000000, 86.158142
1644.000000, 86.076363
1645.000000, 85.899841
1646.000000, 85.991974
1647.000000, 85.840729
1648.000000, 85.765167
1649.000000, 85.644417
1650.000000, 85.692474
1651.000000, 85.724388
1652.000000, 85.681206
1653.000000, 85.630142
1654.000000, 85.652054
1655.000000, 85.504524
1656.000000, 85.406761
1657.000000, 85.207108
1658.000000, 85.049332
1659.000000, 84.868469
1660.000000, 84.639626
1661.000000, 84.390488
1662.000000, 84.210228
1663.000000, 83.732254
1664.000000, 83.370262
1665.000000, 82.983528
1666.000000, 82.710495
1667.000000, 82.360817
1668.000000, 82.060158
1669.000000, 81.849823
1670.000000, 81.807640
1671.000000, 81.871513
1672.000000, 82.102081
1673.000000, 82.118744
1674.000000, 82.372124
1675.000000, 82.567787
1676.000000, 82.790390
1677.000000, 83.006477
1678.000000, 83.113991
1679.000000, 83.178886
1680.000000, 83.252228
1681.000000, 83.153992
1682.000000, 83.022926
1683.000000, 82.841698
1684.000000, 82.659729
1685.000000, 82.487663
1686.000000, 82.276222
1687.000000, 81.916008
1688.000000, 82.052742
1689.000000, 81.849983
1690.000000, 81.859833
1691.000000, 81.830498
1692.000000, 81.927101
1693.000000, 81.984550
1694.000000, 82.015961
1695.000000, 81.853775
1696.000000, 81.919632
1697.000000, 81.673286
1698.000000, 81.600609
1699.000000, 81.523010
1700.000000, 81.472290
1701.000000, 81.612465
1702.000000, 81.674461
1703.000000, 81.766518
1704.000000, 81.988487
1705.000000, 82.130638
1706.000000, 82.332214
1707.000000, 82.335075
1708.000000, 82.461761
1709.000000, 82.566086
1710.000000, 82.556694
1711.000000, 82.737572
1712.000000, 82.734787
1713.000000, 82.731369
1714.000000, 82.707352
1715.000000, 82.696091
1716.000000, 82.600418
1717.000000, 82.621086
1718.000000, 82.525330
1719.000000, 82.348511
1720.000000, 82.376083
1721.000000, 82.392571
1722.000000, 82.449387
1723.000000, 82.385246
1724.000000, 82.352997
1725.000000, 82.333900
1726.000000, 82.350914
1727.000000, 82.378784
1728.000000, 82.373070
1729.000000, 82.366539
1730.000000, 82.330132
1731.000000, 82.396873
1732.000000, 82.281586
1733.000000, 82.285103
1734.000000, 82.209221
1735.000000, 82.317368
1736.000000, 82.293930
1737.000000, 82.233818
1738.000000, 82.369926
1739.000000, 82.408897
1740.000000, 82.463249
1741.000000, 82.586296
1742.000000, 82.717232
1743.000000, 82.860725
1744.000000, 82.889587
1745.000000, 82.991058
1746.000000, 83.128242
1747.000000, 83.244102
1748.000000, 83.332275
1749.000000, 83.338295
1750.000000, 83.454582
1751.000000, 83.550873
1752.000000, 83.528862
1753.000000, 83.555191
1754.000000, 83.595329
1755.000000, 83.647766
1756.000000, 83.593292
1757.000000, 83.608185
1758.000000, 83.537285
1759.000000, 83.576004
1760.000000, 83.407928
1761.000000, 83.402161
1762.000000, 83.566048
1763.000000, 83.456146
1764.000000, 83.451668
1765.000000, 83.392166
1766.000000, 83.295509
1767.000000, 83.375633
1768.000000, 83.223694
1769.000000, 83.308830
1770.000000, 83.303261
1771.000000, 83.360489
1772.000000, 83.344849
1773.000000, 83.414703
1774.000000, 83.448059
1775.000000, 83.493645
1776.000000, 83.513435
1777.000000, 83.587463
1778.000000, 83.655319
1779.000000, 83.779228
1780.000000, 83.838203
1781.000000, 83.847214
1782.000000, 83.778816
1783.000000, 83.898834
1784.000000, 83.882317
1785.000000, 83.920769
1786.000000, 84.019745
1787.000000, 83.924774
1788.000000, 83.960609
1789.000000, 83.943420
1790.000000, 83.938469
1791.000000, 83.962746
1792.000000, 83.955521
1793.000000, 84.034233
1794.000000, 83.946625
1795.000000, 84.093567
1796.000000, 83.952469
1797.000000, 84.066895
1798.000000, 83.970467
1799.000000, 83.921486
1800.000000, 83.997032
1801.000000, 83.864838
1802.000000, 83.954437
1803.000000, 83.953705
1804.000000, 83.884178
1805.000000, 83.948776
1806.000000, 83.966187
1807.000000, 83.943245
1808.000000, 83.938583
1809.000000, 83.889076
1810.000000, 83.954544
1811.000000, 83.845612
1812.000000, 83.902939
1813.000000, 83.947823
1814.000000, 83.781769
1815.000000, 83.862976
1816.000000, 83.898109
1817.000000, 83.826225
1818.000000, 83.833984
1819.000000, 83.958916
1820.000000, 83.857193
1821.000000, 83.975296
1822.000000, 83.812805
1823.000000, 84.005814
1824.000000, 83.896461
1825.000000, 83.893463
1826.000000, 83.859940
1827.000000, 83.939117
1828.000000, 84.016533
1829.000000, 83.909698
1830.000000, 83.983330
1831.000000, 83.872131
1832.000000, 83.917244
1833.000000, 83.896469
1834.000000, 84.072884
1835.000000, 84.031364
1836.000000, 83.982201
1837.000000, 84.111626
1838.000000, 84.052834
1839.000000, 84.041176
1840.000000, 84.125511
1841.000000, 84.032310
1842.000000, 84.148346
1843.000000, 84.068039
1844.000000, 84.092934
1845.000000, 84.156242
1846.000000, 84.134544
1847.000000, 84.097137
1848.000000, 84.198509
1849.000000, 84.192345
1850.000000, 84.170982
1851.000000, 84.314461
1852.000000, 84.276192
1853.000000, 84.239075
1854.000000, 84.301521
1855.000000, 84.265694
1856.000000, 84.357658
1857.000000, 84.432205
1858.000000, 84.457001
1859.000000, 84.431679
1860.000000, 84.416245
1861.000000, 84.346077
1862.000000, 84.387398
1863.000000, 84.395790
1864.000000, 84.409370
1865.000000, 84.534828
1866.000000, 84.537331
1867.000000, 84.406433
1868.000000, 84.493599
1869.000000, 84.480598
1870.000000, 84.541512
1871.000000, 84.457550
1872.000000, 84.508568
1873.000000, 84.511261
1874.000000, 84.465828
1875.000000, 84.582756
1876.000000, 84.594139
1877.000000, 84.506210
1878.000000, 84.537323
1879.000000, 84.565140
1880.000000, 84.548431
1881.000000, 84.536118
1882.000000, 84.651016
1883.000000, 84.690529
1884.000000, 84.537415
1885.000000, 84.623848
1886.000000, 84.555969
1887.000000, 84.585274
1888.000000, 84.554733
1889.000000, 84.642326
1890.000000, 84.710594
1891.000000, 84.669380
1892.000000, 84.509964
1893.000000, 84.677078
1894.000000, 84.490547
1895.000000, 84.632149
1896.000000, 84.586571
1897.000000, 84.645737
1898.000000, 84.532013
1899.000000, 84.479942
1900.000000, 84.594063
1901.000000, 84.472969
1902.000000, 84.500511
1903.000000, 84.548203
1904.000000, 84.513138
1905.000000, 84.557922
1906.000000, 84.510063
1907.000000, 84.461777
1908.000000, 84.474693
1909.000000, 84.482636
1910.000000, 84.448761
1911.000000, 84.674355
1912.000000, 84.395668
1913.000000, 84.449806
1914.000000, 84.494240
1915.000000, 84.483200
1916.000000, 84.494591
1917.000000, 84.538826
1918.000000, 84.394623
1919.000000, 84.520996
1920.000000, 84.487175
1921.000000, 84.449371
1922.000000, 84.337555
1923.000000, 84.532578
1924.000000, 84.541832
1925.000000, 84.435646
1926.000000, 84.412575
1927.000000, 84.524742
1928.000000, 84.526314
1929.000000, 84.450027
1930.000000, 84.417061
1931.000000, 84.509468
1932.000000, 84.446243
1933.000000, 84.415634
1934.000000, 84.415115
1935.000000, 84.416565
1936.000000, 84.478531
1937.000000, 84.452553
1938.000000, 84.477562
1939.000000, 84.516502
1940.000000, 84.451767
1941.000000, 84.488312
1942.000000, 84.512749
1943.000000, 84.534027
1944.000000, 84.568565
1945.000000, 84.607872
1946.000000, 84.441612
1947.000000, 84.553535
1948.000000, 84.453293
1949.000000, 84.468338
1950.000000, 84.556046
1951.000000, 84.593353
1952.000000, 84.483330
1953.000000, 84.486679
1954.000000, 84.497955
1955.000000, 84.506668
1956.000000, 84.547287
1957.000000, 84.455521
1958.000000, 84.517128
1959.000000, 84.461723
1960.000000, 84.354767
1961.000000, 84.458374
1962.000000, 84.481621
1963.000000, 84.433327
1964.000000, 84.488686
1965.000000, 84.398674
1966.000000, 84.446823
1967.000000, 84.337410
1968.000000, 84.412888
1969.000000, 84.334496
1970.000000, 84.379349
1971.000000, 84.362785
1972.000000, 84.345474
1973.000000, 84.301361
1974.000000, 84.265076
1975.000000, 84.403542
1976.000000, 84.203728
1977.000000, 84.310211
1978.000000, 84.147522
1979.000000, 84.273308
1980.000000, 84.281853
1981.000000, 84.251221
1982.000000, 84.142921
1983.000000, 84.217850
1984.000000, 84.248123
1985.000000, 84.199890
1986.000000, 84.132019
1987.000000, 84.057327
1988.000000, 84.063789
1989.000000, 84.048424
1990.000000, 84.023048
1991.000000, 83.935272
1992.000000, 84.036545
1993.000000, 83.974060
1994.000000, 84.003922
1995.000000, 83.772514
1996.000000, 83.746811
1997.000000, 83.779236
1998.000000, 83.774384
1999.000000, 83.557739
2000.000000, 83.524292
2001.000000, 83.550034
2002.000000, 83.509415
2003.000000, 83.386185
2004.000000, 83.301758
2005.000000, 83.231552
2006.000000, 83.226868
2007.000000, 83.115112
2008.000000, 82.985916
2009.000000, 83.005020
2010.000000, 82.865540
2011.000000, 82.978264
2012.000000, 82.813690
2013.000000, 82.735847
2014.000000, 82.600838
2015.000000, 82.615128
2016.000000, 82.529823
2017.000000, 82.360970
2018.000000, 82.361595
2019.000000, 82.319382
2020.000000, 82.029030
2021.000000, 82.098076
2022.000000, 82.052078
2023.000000, 81.923088
2024.000000, 81.866348
2025.000000, 81.846062
2026.000000, 81.699959
2027.000000, 81.569763
2028.000000, 81.550911
2029.000000, 81.327812
2030.000000, 81.364700
2031.000000, 81.222389
2032.000000, 81.137802
2033.000000, 81.067192
2034.000000, 80.940506
2035.000000, 80.806267
2036.000000, 80.775101
2037.000000, 80.710258
2038.000000, 80.616203
2039.000000, 80.477089
2040.000000, 80.383118
2041.000000, 80.396599
2042.000000, 80.212936
2043.000000, 80.038513
2044.000000, 79.957603
2045.000000, 79.874352
2046.000000, 79.860840
2047.000000, 79.834953
2048.000000, 79.640411
2049.000000, 79.579720
2050.000000, 79.471115
2051.000000, 79.475792
2052.000000, 79.321640
2053.000000, 79.214439
2054.000000, 79.105827
2055.000000, 78.974327
2056.000000, 78.845100
2057.000000, 78.834084
2058.000000, 78.735092
2059.000000, 78.552582
2060.000000, 78.446022
2061.000000, 78.375107
2062.000000, 78.210274
2063.000000, 78.146324
2064.000000, 78.089005
2065.000000, 78.014252
2066.000000, 77.747673
2067.000000, 77.725151
2068.000000, 77.499428
2069.000000, 77.426117
2070.000000, 77.358437
2071.000000, 77.198151
2072.000000, 77.180809
2073.000000, 77.103653
2074.000000, 76.890244
2075.000000, 76.753197
2076.000000, 76.572624
2077.000000, 76.532791
2078.000000, 76.498100
2079.000000, 76.247810
2080.000000, 76.203239
2081.000000, 76.120285
2082.000000, 76.009789
2083.000000, 75.962219
2084.000000, 75.911781
2085.000000, 75.827339
2086.000000, 75.763679
2087.000000, 75.678757
2088.000000, 75.704071
2089.000000, 75.547844
2090.000000, 75.488510
2091.000000, 75.478920
2092.000000, 75.450920
2093.000000, 75.462303
2094.000000, 75.361023
2095.000000, 75.345261
2096.000000, 75.287277
2097.000000, 75.187439
2098.000000, 75.288208
2099.000000, 75.189949
2100.000000, 75.181625
2101.000000, 75.216438
2102.000000, 75.163940
2103.000000, 75.134537
2104.000000, 75.154900
2105.000000, 75.093193
2106.000000, 74.931892
2107.000000, 74.999184
2108.000000, 74.965279
2109.000000, 74.929825
2110.000000, 74.863434
2111.000000, 74.808113
2112.000000, 74.819725
2113.000000, 74.801132
2114.000000, 74.698410
2115.000000, 74.680260
2116.000000, 74.589508
2117.000000, 74.600548
2118.000000, 74.494514
2119.000000, 74.357620
2120.000000, 74.388924
2121.000000, 74.330780
2122.000000, 74.215302
2123.000000, 74.045387
2124.000000, 73.922958
2125.000000, 73.825279
2126.000000, 73.560814
2127.000000, 73.262375
2128.000000, 73.039055
2129.000000, 72.786812
2130.000000, 72.380814
2131.000000, 72.048416
2132.000000, 71.760704
2133.000000, 71.308510
2134.000000, 71.144600
2135.000000, 70.866173
2136.000000, 70.838737
2137.000000, 70.834557
2138.000000, 71.006248
2139.000000, 71.092033
2140.000000, 71.312294
2141.000000, 71.557930
2142.000000, 71.698013
2143.000000, 72.046150
2144.000000, 72.250763
2145.000000, 72.354774
2146.000000, 72.450615
2147.000000, 72.592537
2148.000000, 72.676903
2149.000000, 72.526810
2150.000000, 72.541878
2151.000000, 72.366013
2152.000000, 72.129944
2153.000000, 71.837006
2154.000000, 71.622856
2155.000000, 71.235878
2156.000000, 70.772018
2157.000000, 70.342560
2158.000000, 70.004150
2159.000000, 69.594666
2160.000000, 69.274857
2161.000000, 69.041779
2162.000000, 68.895378
2163.000000, 68.833664
2164.000000, 68.865303
2165.000000, 69.092110
2166.000000, 69.449356
2167.000000, 69.864235
2168.000000, 70.273399
2169.000000, 70.740280
2170.000000, 71.204773
2171.000000, 71.725906
2172.000000, 72.122597
2173.000000, 72.505608
2174.000000, 72.731064
2175.000000, 72.942039
2176.000000, 73.035919
2177.000000, 73.239487
2178.000000, 73.204216
2179.000000, 73.247871
2180.000000, 73.217255
2181.000000, 73.135468
2182.000000, 73.117813
2183.000000, 73.054077
2184.000000, 72.925346
2185.000000, 72.814026
2186.000000, 72.705009
2187.000000, 72.617950
2188.000000, 72.538414
2189.000000, 72.475563
2190.000000, 72.398537
2191.000000, 72.408531
2192.000000, 72.483749
2193.000000, 72.543732
2194.000000, 72.502121
2195.000000, 72.528778
2196.000000, 72.638748
2197.000000, 72.587929
2198.000000, 72.482636
2199.000000, 72.470276
2200.000000, 72.494621
2201.000000, 72.458145
2202.000000, 72.421822
2203.000000, 72.329926
2204.000000, 72.240685
2205.000000, 72.254219
2206.000000, 72.206673
2207.000000, 72.134338
2208.000000, 72.150894
2209.000000, 72.030731
2210.000000, 72.094933
2211.000000, 72.130356
2212.000000, 72.247246
2213.000000, 72.225204
2214.000000, 72.286270
2215.000000, 72.361984
2216.000000, 72.340790
2217.000000, 72.453239
2218.000000, 72.495064
2219.000000, 72.518753
2220.000000, 72.468330
2221.000000, 72.379036
2222.000000, 72.416061
2223.000000, 72.416237
2224.000000, 72.293243
2225.000000, 72.132835
2226.000000, 72.023224
2227.000000, 72.014030
2228.000000, 71.811935
2229.000000, 71.614517
2230.000000, 71.578468
2231.000000, 71.544022
2232.000000, 71.375328
2233.000000, 71.244675
2234.000000, 71.218315
2235.000000, 71.128372
2236.000000, 71.075798
2237.000000, 71.022453
2238.000000, 70.921120
2239.000000, 70.716911
2240.000000, 70.607437
2241.000000, 70.479492
2242.000000, 70.382484
2243.000000, 70.183311
2244.000000, 69.967323
2245.000000, 69.723831
2246.000000, 69.564209
2247.000000, 69.165779
2248.000000, 68.951218
2249.000000, 68.517273
2250.000000, 68.153778
2251.000000, 67.726227
2252.000000, 67.396095
2253.000000, 66.944946
2254.000000, 66.424637
2255.000000, 66.035492
2256.000000, 65.486015
2257.000000, 65.007523
2258.000000, 64.511505
2259.000000, 63.945644
2260.000000, 63.465111
2261.000000, 62.918037
2262.000000, 62.241310
2263.000000, 61.680073
2264.000000, 61.064877
2265.000000, 60.526993
2266.000000, 59.938885
2267.000000, 59.334217
2268.000000, 58.659180
2269.000000, 58.134842
2270.000000, 57.624287
2271.000000, 57.223171
2272.000000, 56.727070
2273.000000, 56.444939
2274.000000, 56.118057
2275.000000, 55.924042
2276.000000, 55.796219
2277.000000, 55.652641
2278.000000, 55.518486
2279.000000, 55.443085
2280.000000, 55.268311
2281.000000, 55.090405
2282.000000, 54.978294
2283.000000, 54.828350
2284.000000, 54.644924
2285.000000, 54.343708
2286.000000, 54.173557
2287.000000, 53.907871
2288.000000, 53.716648
2289.000000, 53.555317
2290.000000, 53.359177
2291.000000, 53.057735
2292.000000, 52.852940
2293.000000, 52.606392
2294.000000, 52.419437
2295.000000, 52.207268
2296.000000, 51.913906
2297.000000, 51.736969
2298.000000, 51.606445
2299.000000, 51.364010
2300.000000, 51.209267
2301.000000, 51.120682
2302.000000, 50.961555
2303.000000, 50.923420
2304.000000, 50.745171
2305.000000, 50.601460
2306.000000, 50.480068
2307.000000, 50.430012
2308.000000, 50.238316
2309.000000, 50.049652
2310.000000, 49.900810
2311.000000, 49.753922
2312.000000, 49.609039
2313.000000, 49.466526
2314.000000, 49.416645
2315.000000, 49.475639
2316.000000, 49.615543
2317.000000, 49.868046
2318.000000, 50.157810
2319.000000, 50.622726
2320.000000, 51.138000
2321.000000, 51.584686
2322.000000, 52.110535
2323.000000, 52.473385
2324.000000, 52.932636
2325.000000, 53.342758
2326.000000, 53.665154
2327.000000, 54.065125
2328.000000, 54.408817
2329.000000, 54.656132
2330.000000, 54.938580
2331.000000, 55.172752
2332.000000, 55.369152
2333.000000, 55.672180
2334.000000, 55.902023
2335.000000, 56.150837
2336.000000, 56.302631
2337.000000, 56.476284
2338.000000, 56.546124
2339.000000, 56.646179
2340.000000, 56.677532
2341.000000, 56.740440
2342.000000, 56.702759
2343.000000, 56.701321
2344.000000, 56.673843
2345.000000, 56.574993
2346.000000, 56.645023
2347.000000, 56.625790
2348.000000, 56.506519
2349.000000, 56.606503
2350.000000, 56.531639
2351.000000, 56.476723
2352.000000, 56.537754
2353.000000, 56.604660
2354.000000, 56.577896
2355.000000, 56.765747
2356.000000, 56.821812
2357.000000, 56.756783
2358.000000, 56.802498
2359.000000, 56.684677
2360.000000, 56.711727
2361.000000, 56.648506
2362.000000, 56.562943
2363.000000, 56.479984
2364.000000, 56.513035
2365.000000, 56.508427
2366.000000, 56.448181
2367.000000, 56.559437
2368.000000, 56.464844
2369.000000, 56.646053
2370.000000, 56.742477
2371.000000, 56.737095
2372.000000, 56.750877
2373.000000, 56.798584
2374.000000, 56.795647
2375.000000, 56.893860
2376.000000, 56.947010
2377.000000, 57.007389
2378.000000, 57.015781
2379.000000, 56.973953
2380.000000, 56.924194
2381.000000, 56.850410
2382.000000, 56.777477
2383.000000, 56.722862
2384.000000, 56.616062
2385.000000, 56.473644
2386.000000, 56.396954
2387.000000, 56.307835
2388.000000, 56.208454
2389.000000, 56.095932
2390.000000, 56.055527
2391.000000, 55.921005
2392.000000, 55.802757
2393.000000, 55.747883
2394.000000, 55.618305
2395.000000, 55.530632
2396.000000, 55.376114
2397.000000, 55.353249
2398.000000, 55.184311
2399.000000, 55.127872
2400.000000, 55.090076
2401.000000, 55.037880
2402.000000, 54.996223
2403.000000, 55.088337
2404.000000, 55.183918
2405.000000, 55.276436
2406.000000, 55.547379
2407.000000, 55.676937
2408.000000, 55.844299
2409.000000, 56.118130
2410.000000, 56.341190
2411.000000, 56.526131
2412.000000, 56.706875
2413.000000, 56.957634
2414.000000, 56.973179
2415.000000, 57.207489
2416.000000, 57.361496
2417.000000, 57.329308
2418.000000, 57.431366
2419.000000, 57.584572
2420.000000, 57.517696
2421.000000, 57.623405
2422.000000, 57.632286
2423.000000, 57.691223
2424.000000, 57.628517
2425.000000, 57.673500
2426.000000, 57.638813
2427.000000, 57.599140
2428.000000, 57.507652
2429.000000, 57.457958
2430.000000, 57.293850
2431.000000, 57.335655
2432.000000, 57.100815
2433.000000, 57.033169
2434.000000, 56.870514
2435.000000, 56.671951
2436.000000, 56.460644
2437.000000, 56.284183
2438.000000, 56.051529
2439.000000, 55.699646
2440.000000, 55.381142
2441.000000, 55.019615
2442.000000, 54.507763
2443.000000, 54.124134
2444.000000, 53.558445
2445.000000, 53.110950
2446.000000, 52.605556
2447.000000, 52.106880
2448.000000, 51.526268
2449.000000, 51.015133
2450.000000, 50.570637
2451.000000, 50.011974
2452.000000, 49.567543
2453.000000, 49.152313
2454.000000, 48.738674
2455.000000, 48.216606
2456.000000, 47.791492
2457.000000, 47.402409
2458.000000, 47.054222
2459.000000, 46.823696
2460.000000, 46.614998
2461.000000, 46.463947
2462.000000, 46.460522
2463.000000, 46.594376
2464.000000, 46.788002
2465.000000, 47.051682
2466.000000, 47.445248
2467.000000, 47.734650
2468.000000, 48.265846
2469.000000, 48.775940
2470.000000, 49.242977
2471.000000, 49.737801
2472.000000, 50.168983
2473.000000, 50.600361
2474.000000, 51.009048
2475.000000, 51.380383
2476.000000, 51.787586
2477.000000, 52.031517
2478.000000, 52.422340
2479.000000, 52.552650
2480.000000, 52.737713
2481.000000, 52.924465
2482.000000, 53.020805
2483.000000, 53.069378
2484.000000, 53.044434
2485.000000, 53.034355
2486.000000, 53.035938
2487.000000, 52.988125
2488.000000, 52.931942
2489.000000, 52.934326
2490.000000, 52.847027
2491.000000, 52.775043
2492.000000, 52.783108
2493.000000, 52.662373
2494.000000, 52.583599
2495.000000, 52.528076
2496.000000, 52.423363
2497.000000, 52.341980
2498.000000, 52.335991
2499.000000, 52.195652
2500.000000, 52.039314
2501.000000, 51.909565
2502.000000, 51.876724
2503.000000, 51.713318
2504.000000, 51.596008
2505.000000, 51.566879
2506.000000, 51.413219
2507.000000, 51.292152
2508.000000, 51.292004
2509.000000, 51.174622
2510.000000, 51.185978
2511.000000, 51.153831
2512.000000, 51.210117
2513.000000, 51.146191
2514.000000, 51.184208
2515.000000, 51.242203
2516.000000, 51.386570
2517.000000, 51.481873
2518.000000, 51.619293
2519.000000, 51.809925
2520.000000, 51.929760
2521.000000, 52.092369
2522.000000, 52.337444
2523.000000, 52.464600
2524.000000, 52.603691
2525.000000, 52.828129
2526.000000, 53.012115
2527.000000, 53.202229
2528.000000, 53.354305
2529.000000, 53.596146
2530.000000, 53.807838
2531.000000, 53.920544
2532.000000, 54.126610
2533.000000, 54.167759
2534.000000, 54.386677
2535.000000, 54.516197
2536.000000, 54.627239
2537.000000, 54.635056
2538.000000, 54.781540
2539.000000, 54.805683
2540.000000, 54.923431
2541.000000, 54.959667
2542.000000, 55.013363
2543.000000, 54.981739
2544.000000, 55.004055
2545.000000, 54.986519
2546.000000, 55.041496
2547.000000, 54.968513
2548.000000, 54.968376
2549.000000, 54.991985
2550.000000, 54.905075
2551.000000, 54.846046
2552.000000, 54.872749
2553.000000, 54.895473
2554.000000, 54.875435
2555.000000, 54.844971
2556.000000, 54.828037
2557.000000, 54.881180
2558.000000, 54.892487
2559.000000, 54.950779
2560.000000, 54.878471
2561.000000, 54.919266
2562.000000, 55.042332
2563.000000, 54.955231
2564.000000, 54.968613
2565.000000, 55.020641
2566.000000, 55.106647
2567.000000, 55.141842
2568.000000, 55.258064
2569.000000, 55.259132
2570.000000, 55.263393
2571.000000, 55.318958
2572.000000, 55.385429
2573.000000, 55.401947
2574.000000, 55.324100
2575.000000, 55.378925
2576.000000, 55.490257
2577.000000, 55.470509
2578.000000, 55.555813
2579.000000, 55.632736
2580.000000, 55.703960
2581.000000, 55.870712
2582.000000, 55.948944
2583.000000, 56.092167
2584.000000, 56.272221
2585.000000, 56.484882
2586.000000, 56.625862
2587.000000, 56.834827
2588.000000, 57.054287
2589.000000, 57.223434
2590.000000, 57.376926
2591.000000, 57.616390
2592.000000, 57.759838
2593.000000, 57.913971
2594.000000, 58.045811
2595.000000, 58.211403
2596.000000, 58.299381
2597.000000, 58.482124
2598.000000, 58.658703
2599.000000, 58.716774
2600.000000, 58.830421
