# Wavelength  (nm), Transmission (%)
200.000000, 0.004346
201.000000, 0.004270
202.000000, 0.004178
203.000000, 0.004104
204.000000, 0.004013
205.000000, 0.003931
206.000000, 0.003910
207.000000, 0.003784
208.000000, 0.003701
209.000000, 0.003612
210.000000, 0.003564
211.000000, 0.003471
212.000000, 0.003426
213.000000, 0.003371
214.000000, 0.003347
215.000000, 0.003309
216.000000, 0.003307
217.000000, 0.003272
218.000000, 0.003297
219.000000, 0.003281
220.000000, 0.003278
221.000000, 0.003309
222.000000, 0.003298
223.000000, 0.003310
224.000000, 0.003346
225.000000, 0.003331
226.000000, 0.003378
227.000000, 0.003351
228.000000, 0.003358
229.000000, 0.003382
230.000000, 0.003354
231.000000, 0.003349
232.000000, 0.003349
233.000000, 0.003318
234.000000, 0.003266
235.000000, 0.003243
236.000000, 0.003202
237.000000, 0.003177
238.000000, 0.003114
239.000000, 0.003090
240.000000, 0.003066
241.000000, 0.003026
242.000000, 0.002987
243.000000, 0.002927
244.000000, 0.002899
245.000000, 0.002869
246.000000, 0.002862
247.000000, 0.002785
248.000000, 0.002779
249.000000, 0.002719
250.000000, 0.002711
251.000000, 0.002679
252.000000, 0.002641
253.000000, 0.002624
254.000000, 0.002604
255.000000, 0.002585
256.000000, 0.002585
257.000000, 0.002555
258.000000, 0.002535
259.000000, 0.002519
260.000000, 0.002487
261.000000, 0.002466
262.000000, 0.002431
263.000000, 0.002415
264.000000, 0.002367
265.000000, 0.002366
266.000000, 0.002366
267.000000, 0.002321
268.000000, 0.002300
269.000000, 0.002262
270.000000, 0.002263
271.000000, 0.002261
272.000000, 0.002286
273.000000, 0.002243
274.000000, 0.002199
275.000000, 0.002204
276.000000, 0.002216
277.000000, 0.002208
278.000000, 0.002191
279.000000, 0.002194
280.000000, 0.002187
281.000000, 0.002154
282.000000, 0.002140
283.000000, 0.002111
284.000000, 0.002099
285.000000, 0.002094
286.000000, 0.002064
287.000000, 0.002050
288.000000, 0.002041
289.000000, 0.002044
290.000000, 0.002027
291.000000, 0.001948
292.000000, 0.001929
293.000000, 0.001894
294.000000, 0.001910
295.000000, 0.001803
296.000000, 0.001732
297.000000, 0.001712
298.000000, 0.001606
299.000000, 0.001575
300.000000, 0.001501
301.000000, 0.001471
302.000000, 0.001374
303.000000, 0.001314
304.000000, 0.001283
305.000000, 0.001154
306.000000, 0.001081
307.000000, 0.001004
308.000000, 0.000992
309.000000, 0.000876
310.000000, 0.000825
311.000000, 0.000781
312.000000, 0.000703
313.000000, 0.000658
314.000000, 0.000610
315.000000, 0.000546
316.000000, 0.000500
317.000000, 0.000466
318.000000, 0.000412
319.000000, 0.000389
320.000000, 0.000363
321.000000, 0.000313
322.000000, 0.000304
323.000000, 0.000252
324.000000, 0.000271
325.000000, 0.000215
326.000000, 0.000197
327.000000, 0.000198
328.000000, 0.000203
329.000000, 0.000160
330.000000, 0.000154
331.000000, 0.000141
332.000000, 0.000148
333.000000, 0.000135
334.000000, 0.000132
335.000000, 0.000121
336.000000, 0.000095
337.000000, 0.000099
338.000000, 0.000111
339.000000, 0.000083
340.000000, 0.000101
341.000000, 0.000074
342.000000, 0.000078
343.000000, 0.000077
344.000000, 0.000079
345.000000, 0.000067
346.000000, 0.000082
347.000000, 0.000059
348.000000, 0.000071
349.000000, -0.000072
350.000000, 0.000087
351.000000, 0.000102
352.000000, 0.000094
353.000000, 0.000077
354.000000, 0.000089
355.000000, 0.000066
356.000000, 0.000092
357.000000, 0.000086
358.000000, 0.000068
359.000000, 0.000088
360.000000, 0.000062
361.000000, 0.000085
362.000000, 0.000083
363.000000, 0.000057
364.000000, 0.000073
365.000000, 0.000067
366.000000, 0.000069
367.000000, 0.000052
368.000000, 0.000071
369.000000, 0.000072
370.000000, 0.000063
371.000000, 0.000058
372.000000, 0.000081
373.000000, 0.000064
374.000000, 0.000069
375.000000, 0.000071
376.000000, 0.000063
377.000000, 0.000058
378.000000, 0.000062
379.000000, 0.000071
380.000000, 0.000076
381.000000, 0.000089
382.000000, 0.000155
383.000000, 0.000481
384.000000, 0.002157
385.000000, 0.007582
386.000000, 0.025926
387.000000, 0.069690
388.000000, 0.143909
389.000000, 0.268287
390.000000, 0.395564
391.000000, 0.444644
392.000000, 0.593524
393.000000, 1.026775
394.000000, 1.369762
395.000000, 1.375911
396.000000, 1.954553
397.000000, 3.291576
398.000000, 3.816006
399.000000, 3.248973
400.000000, 4.157703
401.000000, 7.579470
402.000000, 9.687252
403.000000, 8.341805
404.000000, 8.932191
405.000000, 14.040357
406.000000, 16.723293
407.000000, 13.028375
408.000000, 10.110703
409.000000, 15.303842
410.000000, 24.105873
411.000000, 25.319027
412.000000, 19.164259
413.000000, 17.754118
414.000000, 26.909250
415.000000, 35.209934
416.000000, 31.165615
417.000000, 22.655928
418.000000, 23.782858
419.000000, 35.102676
420.000000, 41.579502
421.000000, 34.180389
422.000000, 23.981787
423.000000, 24.411850
424.000000, 36.290470
425.000000, 46.031498
426.000000, 40.400841
427.000000, 28.179428
428.000000, 24.461172
429.000000, 33.770306
430.000000, 48.066574
431.000000, 51.300449
432.000000, 40.519012
433.000000, 31.158039
434.000000, 34.237839
435.000000, 47.520512
436.000000, 56.616653
437.000000, 50.127823
438.000000, 37.008293
439.000000, 31.934515
440.000000, 39.202881
441.000000, 53.812622
442.000000, 62.344910
443.000000, 56.000019
444.000000, 44.780552
445.000000, 42.056320
446.000000, 50.838238
447.000000, 63.481457
448.000000, 66.983536
449.000000, 58.508373
450.000000, 49.218975
451.000000, 48.983356
452.000000, 57.727272
453.000000, 66.815506
454.000000, 66.238182
455.000000, 56.809444
456.000000, 48.714302
457.000000, 49.353966
458.000000, 58.670677
459.000000, 68.913239
460.000000, 69.452278
461.000000, 59.602135
462.000000, 49.714619
463.000000, 47.498371
464.000000, 54.197418
465.000000, 65.287949
466.000000, 71.128197
467.000000, 65.616066
468.000000, 54.527725
469.000000, 47.745167
470.000000, 49.064617
471.000000, 57.512260
472.000000, 67.900177
473.000000, 72.451721
474.000000, 68.373398
475.000000, 60.890343
476.000000, 55.934937
477.000000, 54.128147
478.000000, 52.489906
479.000000, 48.825409
480.000000, 44.114662
481.000000, 41.425140
482.000000, 42.690937
483.000000, 45.813557
484.000000, 44.490616
485.000000, 35.416431
486.000000, 23.229704
487.000000, 14.278655
488.000000, 9.738756
489.000000, 7.934424
490.000000, 7.696865
491.000000, 8.334642
492.000000, 8.831396
493.000000, 8.039227
494.000000, 5.958100
495.000000, 3.789799
496.000000, 2.336226
497.000000, 1.535659
498.000000, 1.114730
499.000000, 0.887214
500.000000, 0.760539
501.000000, 0.694734
502.000000, 0.668682
503.000000, 0.672250
504.000000, 0.702692
505.000000, 0.763343
506.000000, 0.862914
507.000000, 1.026070
508.000000, 1.303160
509.000000, 1.838346
510.000000, 3.145957
511.000000, 8.228774
512.000000, 22.167728
513.000000, 32.901585
514.000000, 23.744553
515.000000, 6.498776
516.000000, 2.323838
517.000000, 1.040362
518.000000, 0.597467
519.000000, 0.399090
520.000000, 0.296077
521.000000, 0.239190
522.000000, 0.207997
523.000000, 0.193661
524.000000, 0.193040
525.000000, 0.205253
526.000000, 0.234462
527.000000, 0.288044
528.000000, 0.384330
529.000000, 0.569269
530.000000, 0.962760
531.000000, 1.981966
532.000000, 5.361379
533.000000, 14.685891
534.000000, 25.471766
535.000000, 26.016483
536.000000, 17.479307
537.000000, 10.777186
538.000000, 8.738836
539.000000, 9.079085
540.000000, 11.412833
541.000000, 16.868370
542.000000, 28.048697
543.000000, 46.518551
544.000000, 65.960655
545.000000, 73.563309
546.000000, 66.928932
547.000000, 56.218021
548.000000, 49.375084
549.000000, 46.986080
550.000000, 47.271317
551.000000, 48.502201
552.000000, 49.591892
553.000000, 50.192673
554.000000, 50.872593
555.000000, 52.618568
556.000000, 56.333439
557.000000, 62.311333
558.000000, 69.660400
559.000000, 75.826225
560.000000, 78.073181
561.000000, 75.345818
562.000000, 69.578690
563.000000, 63.798172
564.000000, 60.353832
565.000000, 60.208076
566.000000, 63.692825
567.000000, 70.263062
568.000000, 77.963341
569.000000, 82.916420
570.000000, 81.643829
571.000000, 74.452301
572.000000, 64.656219
573.000000, 55.762505
574.000000, 49.797390
575.000000, 47.182785
576.000000, 47.807457
577.000000, 51.585442
578.000000, 58.406033
579.000000, 67.029198
580.000000, 74.928795
581.000000, 78.626457
582.000000, 76.454002
583.000000, 69.925194
584.000000, 62.395947
585.000000, 56.425564
586.000000, 53.157295
587.000000, 52.824097
588.000000, 55.455727
589.000000, 60.733921
590.000000, 67.711479
591.000000, 74.496025
592.000000, 78.117767
593.000000, 76.721085
594.000000, 70.909050
595.000000, 63.223381
596.000000, 56.140224
597.000000, 51.057846
598.000000, 48.420166
599.000000, 48.156307
600.000000, 50.181190
601.000000, 54.298447
602.000000, 60.119896
603.000000, 66.643738
604.000000, 72.355095
605.000000, 75.464508
606.000000, 75.244011
607.000000, 72.068115
608.000000, 67.622437
609.000000, 63.410156
610.000000, 60.517365
611.000000, 59.355141
612.000000, 60.022438
613.000000, 62.344955
614.000000, 65.995064
615.000000, 70.310173
616.000000, 74.264923
617.000000, 76.746536
618.000000, 77.118103
619.000000, 75.403358
620.000000, 72.316780
621.000000, 68.988129
622.000000, 66.246880
623.000000, 64.568855
624.000000, 64.214066
625.000000, 65.167938
626.000000, 67.204872
627.000000, 70.036751
628.000000, 73.135773
629.000000, 75.825485
630.000000, 77.524391
631.000000, 77.956100
632.000000, 77.141556
633.000000, 75.544426
634.000000, 73.739220
635.000000, 72.208794
636.000000, 71.365013
637.000000, 71.353775
638.000000, 72.208153
639.000000, 73.779968
640.000000, 75.749100
641.000000, 77.794563
642.000000, 79.388451
643.000000, 80.179474
644.000000, 80.010849
645.000000, 78.900925
646.000000, 77.234985
647.000000, 75.361473
648.000000, 73.690491
649.000000, 72.529419
650.000000, 71.996758
651.000000, 72.257629
652.000000, 73.189087
653.000000, 74.742081
654.000000, 76.720642
655.000000, 78.795967
656.000000, 80.746284
657.000000, 82.274109
658.000000, 83.210358
659.000000, 83.473930
660.000000, 83.139305
661.000000, 82.416603
662.000000, 81.549400
663.000000, 80.735825
664.000000, 80.179527
665.000000, 79.910362
666.000000, 79.959991
667.000000, 80.320366
668.000000, 80.923912
669.000000, 81.575005
670.000000, 82.209007
671.000000, 82.752159
672.000000, 83.168030
673.000000, 83.357010
674.000000, 83.413330
675.000000, 83.381393
676.000000, 83.336533
677.000000, 83.327461
678.000000, 83.420731
679.000000, 83.583153
680.000000, 83.875694
681.000000, 84.176926
682.000000, 84.490387
683.000000, 84.670189
684.000000, 84.768364
685.000000, 84.678856
686.000000, 84.521400
687.000000, 84.158760
688.000000, 83.796661
689.000000, 83.422379
690.000000, 83.140190
691.000000, 82.965637
692.000000, 82.993546
693.000000, 83.165512
694.000000, 83.458969
695.000000, 83.959709
696.000000, 84.484459
697.000000, 85.043777
698.000000, 85.510429
699.000000, 85.862747
700.000000, 86.032448
701.000000, 86.094215
702.000000, 86.016068
703.000000, 85.841438
704.000000, 85.575752
705.000000, 85.401665
706.000000, 85.274055
707.000000, 85.242424
708.000000, 85.382133
709.000000, 85.520531
710.000000, 85.834991
711.000000, 86.141640
712.000000, 86.477570
713.000000, 86.794128
714.000000, 86.977295
715.000000, 87.074203
716.000000, 87.075439
717.000000, 86.979568
718.000000, 86.711914
719.000000, 86.461349
720.000000, 86.214607
721.000000, 86.023178
722.000000, 85.808945
723.000000, 85.750252
724.000000, 85.711349
725.000000, 85.759666
726.000000, 85.795547
727.000000, 85.913330
728.000000, 85.979591
729.000000, 86.016777
730.000000, 85.986145
731.000000, 85.849937
732.000000, 85.642197
733.000000, 85.442940
734.000000, 85.244026
735.000000, 84.987976
736.000000, 84.867073
737.000000, 84.730484
738.000000, 84.758362
739.000000, 84.907021
740.000000, 85.160957
741.000000, 85.507355
742.000000, 85.946945
743.000000, 86.358192
744.000000, 86.831055
745.000000, 87.228844
746.000000, 87.572472
747.000000, 87.836655
748.000000, 87.913155
749.000000, 87.927505
750.000000, 87.801292
751.000000, 87.604485
752.000000, 87.473206
753.000000, 87.286766
754.000000, 87.193787
755.000000, 86.991577
756.000000, 86.980545
757.000000, 87.093353
758.000000, 87.153397
759.000000, 87.419495
760.000000, 87.601921
761.000000, 87.878082
762.000000, 88.062439
763.000000, 88.230209
764.000000, 88.442596
765.000000, 88.523468
766.000000, 88.477806
767.000000, 88.395752
768.000000, 88.312729
769.000000, 88.155678
770.000000, 88.000885
771.000000, 87.888695
772.000000, 87.761833
773.000000, 87.753197
774.000000, 87.801369
775.000000, 87.866524
776.000000, 88.005028
777.000000, 88.143364
778.000000, 88.312126
779.000000, 88.509979
780.000000, 88.639587
781.000000, 88.879120
782.000000, 88.978210
783.000000, 89.047867
784.000000, 89.168083
785.000000, 89.130951
786.000000, 89.157532
787.000000, 89.076263
788.000000, 89.003548
789.000000, 89.023659
790.000000, 89.061165
791.000000, 88.992622
792.000000, 88.981369
793.000000, 89.025986
794.000000, 89.006577
795.000000, 89.065735
796.000000, 89.070862
797.000000, 89.069023
798.000000, 89.148224
799.000000, 89.023666
800.000000, 89.987656
801.000000, 89.866364
802.000000, 89.759514
803.000000, 89.814461
804.000000, 89.926872
805.000000, 89.875122
806.000000, 89.868484
807.000000, 89.761665
808.000000, 89.704445
809.000000, 89.718536
810.000000, 89.820877
811.000000, 89.708481
812.000000, 89.702362
813.000000, 89.583168
814.000000, 89.646889
815.000000, 89.506760
816.000000, 89.572609
817.000000, 89.488327
818.000000, 89.343079
819.000000, 89.418587
820.000000, 89.221771
821.000000, 89.276497
822.000000, 89.323250
823.000000, 89.272285
824.000000, 89.410233
825.000000, 89.399231
826.000000, 89.205818
827.000000, 89.276993
828.000000, 89.242836
829.000000, 89.236450
830.000000, 89.205238
831.000000, 89.169495
832.000000, 89.082092
833.000000, 88.950562
834.000000, 88.816162
835.000000, 88.780418
836.000000, 88.561554
837.000000, 88.405281
838.000000, 88.116974
839.000000, 87.878448
840.000000, 87.620041
841.000000, 87.431625
842.000000, 86.999985
843.000000, 86.780861
844.000000, 86.230186
845.000000, 85.330154
846.000000, 83.386803
847.000000, 80.012306
848.000000, 74.762299
849.000000, 67.335335
850.000000, 58.603191
851.000000, 49.882450
852.000000, 41.442543
853.000000, 34.214329
854.000000, 28.296358
855.000000, 23.488478
856.000000, 19.506817
857.000000, 16.488977
858.000000, 14.028306
859.000000, 12.008934
860.000000, 10.445210
861.000000, 9.082911
862.000000, 7.900956
863.000000, 6.936725
864.000000, 6.117717
865.000000, 5.096629
866.000000, 3.996859
867.000000, 3.065790
868.000000, 2.238431
869.000000, 1.567681
870.000000, 1.061470
871.000000, 0.676298
872.000000, 0.412340
873.000000, 0.244886
874.000000, 0.141229
875.000000, 0.082013
876.000000, 0.049910
877.000000, 0.031569
878.000000, 0.020591
879.000000, 0.014340
880.000000, 0.010155
881.000000, 0.007501
882.000000, 0.005615
883.000000, 0.004466
884.000000, 0.003615
885.000000, 0.003024
886.000000, 0.002448
887.000000, 0.002131
888.000000, 0.001762
889.000000, 0.001587
890.000000, 0.001227
891.000000, 0.001079
892.000000, 0.001076
893.000000, 0.000926
894.000000, 0.000829
895.000000, 0.000754
896.000000, 0.000827
897.000000, 0.000803
898.000000, 0.000761
899.000000, 0.000668
900.000000, 0.000833
901.000000, 0.000725
902.000000, 0.000745
903.000000, 0.000732
904.000000, 0.000572
905.000000, 0.000696
906.000000, 0.000692
907.000000, 0.000611
908.000000, 0.000585
909.000000, 0.000568
910.000000, 0.000609
911.000000, 0.000617
912.000000, 0.000624
913.000000, 0.000707
914.000000, 0.000607
915.000000, 0.000579
916.000000, 0.000505
917.000000, 0.000542
918.000000, 0.000488
919.000000, 0.000541
920.000000, 0.000548
921.000000, 0.000534
922.000000, 0.000498
923.000000, 0.000494
924.000000, 0.000498
925.000000, 0.000560
926.000000, 0.000478
927.000000, 0.000492
928.000000, 0.000479
929.000000, 0.000477
930.000000, 0.000506
931.000000, 0.000432
932.000000, 0.000440
933.000000, 0.000510
934.000000, 0.000496
935.000000, 0.000455
936.000000, 0.000481
937.000000, 0.000458
938.000000, 0.000504
939.000000, 0.000485
940.000000, 0.000414
941.000000, 0.000484
942.000000, 0.000535
943.000000, 0.000531
944.000000, 0.000472
945.000000, 0.000509
946.000000, 0.000473
947.000000, 0.000528
948.000000, 0.000475
949.000000, 0.000490
950.000000, 0.000527
951.000000, 0.000468
952.000000, 0.000431
953.000000, 0.000373
954.000000, 0.000461
955.000000, 0.000446
956.000000, 0.000490
957.000000, 0.000462
958.000000, 0.000482
959.000000, 0.000454
960.000000, 0.000425
961.000000, 0.000410
962.000000, 0.000412
963.000000, 0.000497
964.000000, 0.000401
965.000000, 0.000461
966.000000, 0.000366
967.000000, 0.000486
968.000000, 0.000340
969.000000, 0.000411
970.000000, 0.000404
971.000000, 0.000424
972.000000, 0.000386
973.000000, 0.000428
974.000000, 0.000401
975.000000, 0.000394
976.000000, 0.000424
977.000000, 0.000341
978.000000, 0.000397
979.000000, 0.000402
980.000000, 0.000426
981.000000, 0.000429
982.000000, 0.000472
983.000000, 0.000480
984.000000, 0.000461
985.000000, 0.000407
986.000000, 0.000420
987.000000, 0.000459
988.000000, 0.000477
989.000000, 0.000468
990.000000, 0.000421
991.000000, 0.000448
992.000000, 0.000498
993.000000, 0.000416
994.000000, 0.000448
995.000000, 0.000437
996.000000, 0.000465
997.000000, 0.000311
998.000000, 0.000357
999.000000, 0.000367
1000.000000, 0.000420
1001.000000, 0.000387
1002.000000, 0.000410
1003.000000, 0.000398
1004.000000, 0.000332
1005.000000, 0.000489
1006.000000, 0.000417
1007.000000, 0.000451
1008.000000, 0.000305
1009.000000, 0.000450
1010.000000, 0.000365
1011.000000, 0.000411
1012.000000, 0.000449
1013.000000, 0.000428
1014.000000, 0.000459
1015.000000, 0.000427
1016.000000, 0.000482
1017.000000, 0.000448
1018.000000, 0.000460
1019.000000, 0.000453
1020.000000, 0.000363
1021.000000, 0.000481
1022.000000, 0.000501
1023.000000, 0.000403
1024.000000, 0.000436
1025.000000, 0.000355
1026.000000, 0.000458
1027.000000, 0.000446
1028.000000, 0.000410
1029.000000, 0.000377
1030.000000, 0.000380
1031.000000, 0.000452
1032.000000, 0.000393
1033.000000, 0.000476
1034.000000, 0.000430
1035.000000, 0.000373
1036.000000, 0.000412
1037.000000, 0.000439
1038.000000, 0.000396
1039.000000, 0.000482
1040.000000, 0.000484
1041.000000, 0.000396
1042.000000, 0.000356
1043.000000, 0.000417
1044.000000, 0.000426
1045.000000, 0.000450
1046.000000, 0.000387
1047.000000, 0.000432
1048.000000, 0.000437
1049.000000, 0.000426
1050.000000, 0.000387
1051.000000, 0.000415
1052.000000, 0.000529
1053.000000, 0.000392
1054.000000, 0.000455
1055.000000, 0.000426
1056.000000, 0.000359
1057.000000, 0.000429
1058.000000, 0.000392
1059.000000, 0.000380
1060.000000, 0.000423
1061.000000, 0.000499
1062.000000, 0.000400
1063.000000, 0.000489
1064.000000, 0.000428
1065.000000, 0.000369
1066.000000, 0.000435
1067.000000, 0.000451
1068.000000, 0.000472
1069.000000, 0.000462
1070.000000, 0.000409
1071.000000, 0.000496
1072.000000, 0.000382
1073.000000, 0.000343
1074.000000, 0.000447
1075.000000, 0.000437
1076.000000, 0.000392
1077.000000, 0.000437
1078.000000, 0.000349
1079.000000, 0.000445
1080.000000, 0.000455
1081.000000, 0.000459
1082.000000, 0.000339
1083.000000, 0.000403
1084.000000, 0.000418
1085.000000, 0.000402
1086.000000, 0.000455
1087.000000, 0.000394
1088.000000, 0.000401
1089.000000, 0.000420
1090.000000, 0.000350
1091.000000, 0.000464
1092.000000, 0.000430
1093.000000, 0.000448
1094.000000, 0.000350
1095.000000, 0.000394
1096.000000, 0.000368
1097.000000, 0.000419
1098.000000, 0.000397
1099.000000, 0.000405
1100.000000, 0.000419
1101.000000, 0.000451
1102.000000, 0.000416
1103.000000, 0.000411
1104.000000, 0.000408
1105.000000, 0.000389
1106.000000, 0.000402
1107.000000, 0.000453
1108.000000, 0.000332
1109.000000, 0.000413
1110.000000, 0.000434
1111.000000, 0.000436
1112.000000, 0.000460
1113.000000, 0.000446
1114.000000, 0.000437
1115.000000, 0.000409
1116.000000, 0.000463
1117.000000, 0.000473
1118.000000, 0.000424
1119.000000, 0.000474
1120.000000, 0.000426
1121.000000, 0.000452
1122.000000, 0.000391
1123.000000, 0.000447
1124.000000, 0.000444
1125.000000, 0.000401
1126.000000, 0.000495
1127.000000, 0.000406
1128.000000, 0.000386
1129.000000, 0.000363
1130.000000, 0.000516
1131.000000, 0.000403
1132.000000, 0.000440
1133.000000, 0.000404
1134.000000, 0.000349
1135.000000, 0.000412
1136.000000, 0.000371
1137.000000, 0.000471
1138.000000, 0.000468
1139.000000, 0.000373
1140.000000, 0.000435
1141.000000, 0.000426
1142.000000, 0.000425
1143.000000, 0.000425
1144.000000, 0.000421
1145.000000, 0.000434
1146.000000, 0.000377
1147.000000, 0.000394
1148.000000, 0.000442
1149.000000, 0.000414
1150.000000, 0.000451
1151.000000, 0.000442
1152.000000, 0.000406
1153.000000, 0.000440
1154.000000, 0.000416
1155.000000, 0.000300
1156.000000, 0.000420
1157.000000, 0.000499
1158.000000, 0.000393
1159.000000, 0.000417
1160.000000, 0.000420
1161.000000, 0.000412
1162.000000, 0.000546
1163.000000, 0.000514
1164.000000, 0.000495
1165.000000, 0.000457
1166.000000, 0.000375
1167.000000, 0.000396
1168.000000, 0.000448
1169.000000, 0.000394
1170.000000, 0.000473
1171.000000, 0.000360
1172.000000, 0.000351
1173.000000, 0.000452
1174.000000, 0.000363
1175.000000, 0.000458
1176.000000, 0.000404
1177.000000, 0.000515
1178.000000, 0.000421
1179.000000, 0.000537
1180.000000, 0.000459
1181.000000, 0.000548
1182.000000, 0.000530
1183.000000, 0.000595
1184.000000, 0.000590
1185.000000, 0.000581
1186.000000, 0.000720
1187.000000, 0.000823
1188.000000, 0.000918
1189.000000, 0.001060
1190.000000, 0.001342
1191.000000, 0.001654
1192.000000, 0.002102
1193.000000, 0.002872
1194.000000, 0.003836
1195.000000, 0.005495
1196.000000, 0.008009
1197.000000, 0.012264
1198.000000, 0.022837
1199.000000, 0.059052
1200.000000, 0.573510
1201.000000, 1.324581
1202.000000, 2.156563
1203.000000, 2.990622
1204.000000, 3.767325
1205.000000, 5.035408
1206.000000, 7.087525
1207.000000, 9.606936
1208.000000, 10.993026
1209.000000, 9.419827
1210.000000, 7.167309
1211.000000, 5.516481
1212.000000, 4.352451
1213.000000, 3.562746
1214.000000, 2.782035
1215.000000, 2.051549
1216.000000, 1.508890
1217.000000, 1.412686
1218.000000, 2.038878
1219.000000, 2.803237
1220.000000, 3.983984
1221.000000, 4.883425
1222.000000, 6.620101
1223.000000, 9.361888
1224.000000, 15.092811
1225.000000, 26.298281
1226.000000, 38.756096
1227.000000, 38.524868
1228.000000, 27.376890
1229.000000, 18.249142
1230.000000, 12.432384
1231.000000, 8.739246
1232.000000, 6.412164
1233.000000, 5.211359
1234.000000, 3.814645
1235.000000, 2.385971
1236.000000, 1.687101
1237.000000, 1.368187
1238.000000, 1.206275
1239.000000, 1.118734
1240.000000, 1.072296
1241.000000, 1.056317
1242.000000, 1.065746
1243.000000, 1.101159
1244.000000, 1.164995
1245.000000, 1.251539
1246.000000, 1.381082
1247.000000, 1.552750
1248.000000, 1.789236
1249.000000, 2.115954
1250.000000, 2.590567
1251.000000, 3.147810
1252.000000, 3.866370
1253.000000, 4.624824
1254.000000, 5.772300
1255.000000, 7.489805
1256.000000, 10.057707
1257.000000, 14.145315
1258.000000, 20.548779
1259.000000, 30.596443
1260.000000, 44.673111
1261.000000, 56.542969
1262.000000, 56.790424
1263.000000, 45.196049
1264.000000, 32.683582
1265.000000, 23.128420
1266.000000, 16.839838
1267.000000, 12.722072
1268.000000, 9.961991
1269.000000, 8.030347
1270.000000, 6.664313
1271.000000, 5.721044
1272.000000, 5.018859
1273.000000, 4.510522
1274.000000, 4.185846
1275.000000, 3.903349
1276.000000, 3.665846
1277.000000, 3.511613
1278.000000, 3.418857
1279.000000, 3.372274
1280.000000, 3.377034
1281.000000, 3.423306
1282.000000, 3.519705
1283.000000, 3.666410
1284.000000, 3.831987
1285.000000, 4.038600
1286.000000, 4.324711
1287.000000, 4.667667
1288.000000, 5.125962
1289.000000, 5.696822
1290.000000, 6.361402
1291.000000, 7.225168
1292.000000, 8.301039
1293.000000, 9.659899
1294.000000, 11.442698
1295.000000, 13.875626
1296.000000, 16.909912
1297.000000, 21.041641
1298.000000, 26.671463
1299.000000, 33.767876
1300.000000, 43.229076
1301.000000, 54.597549
1302.000000, 65.240372
1303.000000, 72.128143
1304.000000, 72.428665
1305.000000, 66.078247
1306.000000, 56.635952
1307.000000, 46.323750
1308.000000, 37.506302
1309.000000, 30.846565
1310.000000, 25.555143
1311.000000, 21.574310
1312.000000, 18.599636
1313.000000, 16.198076
1314.000000, 14.322469
1315.000000, 12.901534
1316.000000, 11.755280
1317.000000, 10.850128
1318.000000, 10.159781
1319.000000, 9.584285
1320.000000, 9.128651
1321.000000, 8.794661
1322.000000, 8.550258
1323.000000, 8.386350
1324.000000, 8.290784
1325.000000, 8.269994
1326.000000, 8.295609
1327.000000, 8.407454
1328.000000, 8.576652
1329.000000, 8.818913
1330.000000, 9.131873
1331.000000, 9.512395
1332.000000, 9.998028
1333.000000, 10.593634
1334.000000, 11.241400
1335.000000, 12.037438
1336.000000, 12.984777
1337.000000, 14.057393
1338.000000, 15.429749
1339.000000, 17.089485
1340.000000, 19.117195
1341.000000, 21.442205
1342.000000, 24.280363
1343.000000, 27.761400
1344.000000, 31.703657
1345.000000, 36.756222
1346.000000, 42.798798
1347.000000, 49.453987
1348.000000, 56.921707
1349.000000, 64.501396
1350.000000, 71.438499
1351.000000, 77.084793
1352.000000, 80.042717
1353.000000, 79.854172
1354.000000, 76.650223
1355.000000, 71.188828
1356.000000, 64.728859
1357.000000, 58.003937
1358.000000, 51.604908
1359.000000, 45.783199
1360.000000, 40.885941
1361.000000, 36.640499
1362.000000, 32.818611
1363.000000, 29.903841
1364.000000, 27.306923
1365.000000, 25.081148
1366.000000, 23.329086
1367.000000, 21.797140
1368.000000, 20.525785
1369.000000, 19.493395
1370.000000, 18.619715
1371.000000, 17.875322
1372.000000, 17.252697
1373.000000, 16.824398
1374.000000, 16.455488
1375.000000, 16.203833
1376.000000, 16.039318
1377.000000, 15.979703
1378.000000, 15.985150
1379.000000, 16.083658
1380.000000, 16.247643
1381.000000, 16.524715
1382.000000, 16.859011
1383.000000, 17.301569
1384.000000, 17.843079
1385.000000, 18.504730
1386.000000, 19.263882
1387.000000, 20.168022
1388.000000, 21.184479
1389.000000, 22.377281
1390.000000, 23.780043
1391.000000, 25.385466
1392.000000, 27.154333
1393.000000, 29.257111
1394.000000, 31.610558
1395.000000, 34.230858
1396.000000, 37.376701
1397.000000, 40.941574
1398.000000, 44.796997
1399.000000, 48.949070
1400.000000, 53.690903
1401.000000, 58.738773
1402.000000, 63.980770
1403.000000, 69.350784
1404.000000, 74.305023
1405.000000, 78.966743
1406.000000, 82.515442
1407.000000, 85.115692
1408.000000, 86.219131
1409.000000, 85.840370
1410.000000, 83.914078
1411.000000, 81.173332
1412.000000, 77.195198
1413.000000, 72.940582
1414.000000, 68.428711
1415.000000, 63.701588
1416.000000, 59.188950
1417.000000, 55.074715
1418.000000, 51.287998
1419.000000, 47.734268
1420.000000, 44.634979
1421.000000, 41.782265
1422.000000, 39.310703
1423.000000, 37.126862
1424.000000, 35.257259
1425.000000, 33.538036
1426.000000, 32.066109
1427.000000, 30.826855
1428.000000, 29.680529
1429.000000, 28.683659
1430.000000, 27.905645
1431.000000, 27.226294
1432.000000, 26.683617
1433.000000, 26.245159
1434.000000, 25.887972
1435.000000, 25.627747
1436.000000, 25.521526
1437.000000, 25.455120
1438.000000, 25.526920
1439.000000, 25.656132
1440.000000, 25.886906
1441.000000, 26.231989
1442.000000, 26.651691
1443.000000, 27.123732
1444.000000, 27.753262
1445.000000, 28.470591
1446.000000, 29.285557
1447.000000, 30.235592
1448.000000, 31.370848
1449.000000, 32.550507
1450.000000, 33.984833
1451.000000, 35.473873
1452.000000, 37.168007
1453.000000, 38.965504
1454.000000, 41.099491
1455.000000, 43.424709
1456.000000, 45.994236
1457.000000, 48.788734
1458.000000, 51.683765
1459.000000, 54.704643
1460.000000, 58.052982
1461.000000, 61.676090
1462.000000, 65.267906
1463.000000, 68.902496
1464.000000, 72.676056
1465.000000, 75.841949
1466.000000, 79.234703
1467.000000, 82.122597
1468.000000, 84.702507
1469.000000, 86.558441
1470.000000, 87.750366
1471.000000, 88.212181
1472.000000, 87.948540
1473.000000, 87.093300
1474.000000, 85.555565
1475.000000, 83.445160
1476.000000, 81.115555
1477.000000, 78.264618
1478.000000, 75.430725
1479.000000, 72.320976
1480.000000, 69.164658
1481.000000, 66.056137
1482.000000, 63.173340
1483.000000, 60.272938
1484.000000, 57.742912
1485.000000, 55.151291
1486.000000, 52.773899
1487.000000, 50.600510
1488.000000, 48.617916
1489.000000, 46.873413
1490.000000, 45.214996
1491.000000, 43.756718
1492.000000, 42.373638
1493.000000, 41.137836
1494.000000, 40.121647
1495.000000, 39.185089
1496.000000, 38.319336
1497.000000, 37.640072
1498.000000, 37.023617
1499.000000, 36.542614
1500.000000, 36.128490
1501.000000, 35.807537
1502.000000, 35.611652
1503.000000, 35.468910
1504.000000, 35.419403
1505.000000, 35.435181
1506.000000, 35.531353
1507.000000, 35.735912
1508.000000, 35.982826
1509.000000, 36.333927
1510.000000, 36.726837
1511.000000, 37.283211
1512.000000, 37.890060
1513.000000, 38.556870
1514.000000, 39.394997
1515.000000, 40.221424
1516.000000, 41.187256
1517.000000, 42.252411
1518.000000, 43.536331
1519.000000, 44.860863
1520.000000, 46.247883
1521.000000, 47.831776
1522.000000, 49.429028
1523.000000, 51.179565
1524.000000, 53.128071
1525.000000, 55.192154
1526.000000, 57.407272
1527.000000, 59.727509
1528.000000, 62.098564
1529.000000, 64.467453
1530.000000, 67.152443
1531.000000, 69.810448
1532.000000, 72.308578
1533.000000, 74.872154
1534.000000, 77.295975
1535.000000, 79.797440
1536.000000, 82.045341
1537.000000, 84.043747
1538.000000, 85.834358
1539.000000, 87.336975
1540.000000, 88.360741
1541.000000, 89.213715
1542.000000, 89.665703
1543.000000, 89.619057
1544.000000, 89.259979
1545.000000, 88.609886
1546.000000, 87.468353
1547.000000, 86.133865
1548.000000, 84.750061
1549.000000, 82.959953
1550.000000, 80.946152
1551.000000, 78.777565
1552.000000, 76.645279
1553.000000, 74.513092
1554.000000, 72.304733
1555.000000, 70.084587
1556.000000, 67.941948
1557.000000, 65.871010
1558.000000, 63.799011
1559.000000, 61.954433
1560.000000, 60.057758
1561.000000, 58.423168
1562.000000, 56.818207
1563.000000, 55.148582
1564.000000, 53.757847
1565.000000, 52.462925
1566.000000, 51.258629
1567.000000, 50.142212
1568.000000, 49.131809
1569.000000, 48.140480
1570.000000, 47.343700
1571.000000, 46.556873
1572.000000, 45.843758
1573.000000, 45.236362
1574.000000, 44.748573
1575.000000, 44.294064
1576.000000, 43.894753
1577.000000, 43.604889
1578.000000, 43.424236
1579.000000, 43.239616
1580.000000, 43.088707
1581.000000, 43.119663
1582.000000, 43.138645
1583.000000, 43.245937
1584.000000, 43.385780
1585.000000, 43.653896
1586.000000, 43.944813
1587.000000, 44.281979
1588.000000, 44.781036
1589.000000, 45.295822
1590.000000, 45.817547
1591.000000, 46.499332
1592.000000, 47.209976
1593.000000, 47.935902
1594.000000, 48.800911
1595.000000, 49.763611
1596.000000, 50.638527
1597.000000, 51.765720
1598.000000, 52.877911
1599.000000, 54.087852
1600.000000, 55.356579
1601.000000, 56.766491
1602.000000, 58.207321
1603.000000, 59.725700
1604.000000, 61.240639
1605.000000, 62.899982
1606.000000, 64.594490
1607.000000, 66.324661
1608.000000, 68.159241
1609.000000, 69.993828
1610.000000, 71.943321
1611.000000, 73.767433
1612.000000, 75.540352
1613.000000, 77.489937
1614.000000, 79.284706
1615.000000, 80.925819
1616.000000, 82.615715
1617.000000, 84.133110
1618.000000, 85.487419
1619.000000, 86.747620
1620.000000, 87.918030
1621.000000, 88.850060
1622.000000, 89.688583
1623.000000, 90.236610
1624.000000, 90.640114
1625.000000, 90.693512
1626.000000, 90.605629
1627.000000, 90.263107
1628.000000, 89.832031
1629.000000, 89.101753
1630.000000, 88.267647
1631.000000, 87.369324
1632.000000, 86.308296
1633.000000, 85.018036
1634.000000, 83.674713
1635.000000, 82.347122
1636.000000, 80.923752
1637.000000, 79.490265
1638.000000, 78.096992
1639.000000, 76.549515
1640.000000, 74.884254
1641.000000, 73.416809
1642.000000, 72.095978
1643.000000, 70.566841
1644.000000, 69.262123
1645.000000, 67.926903
1646.000000, 66.532425
1647.000000, 65.338623
1648.000000, 64.213226
1649.000000, 63.126720
1650.000000, 62.030388
1651.000000, 61.072113
1652.000000, 60.086960
1653.000000, 59.232967
1654.000000, 58.518524
1655.000000, 57.719910
1656.000000, 57.009663
1657.000000, 56.418591
1658.000000, 55.727863
1659.000000, 55.183071
1660.000000, 54.682034
1661.000000, 54.284836
1662.000000, 53.879555
1663.000000, 53.490829
1664.000000, 53.192856
1665.000000, 52.950130
1666.000000, 52.792572
1667.000000, 52.657253
1668.000000, 52.582844
1669.000000, 52.532375
1670.000000, 52.710045
1671.000000, 52.809410
1672.000000, 53.109379
1673.000000, 53.412914
1674.000000, 53.813339
1675.000000, 54.173637
1676.000000, 54.622288
1677.000000, 55.070209
1678.000000, 55.648232
1679.000000, 56.330544
1680.000000, 56.891911
1681.000000, 57.475590
1682.000000, 58.138889
1683.000000, 58.755962
1684.000000, 59.494102
1685.000000, 60.289635
1686.000000, 61.162163
1687.000000, 62.034245
1688.000000, 62.954788
1689.000000, 63.896526
1690.000000, 64.931778
1691.000000, 66.088501
1692.000000, 67.169479
1693.000000, 68.347572
1694.000000, 69.651093
1695.000000, 70.604973
1696.000000, 71.971184
1697.000000, 73.103539
1698.000000, 74.324387
1699.000000, 75.609032
1700.000000, 76.702248
1701.000000, 78.010948
1702.000000, 79.266785
1703.000000, 80.423721
1704.000000, 81.675056
1705.000000, 82.633614
1706.000000, 83.729866
1707.000000, 84.838890
1708.000000, 85.693893
1709.000000, 86.479446
1710.000000, 87.240807
1711.000000, 87.808205
1712.000000, 88.442711
1713.000000, 88.777557
1714.000000, 89.010101
1715.000000, 89.043884
1716.000000, 89.198196
1717.000000, 89.148720
1718.000000, 89.059265
1719.000000, 88.708725
1720.000000, 88.360779
1721.000000, 87.910713
1722.000000, 87.382851
1723.000000, 86.787071
1724.000000, 86.133835
1725.000000, 85.364685
1726.000000, 84.620087
1727.000000, 83.694298
1728.000000, 82.944519
1729.000000, 81.920662
1730.000000, 80.884705
1731.000000, 79.961594
1732.000000, 78.938469
1733.000000, 77.965164
1734.000000, 76.985222
1735.000000, 75.926659
1736.000000, 74.886635
1737.000000, 73.951431
1738.000000, 72.989449
1739.000000, 72.032928
1740.000000, 71.179047
1741.000000, 70.364990
1742.000000, 69.449905
1743.000000, 68.752617
1744.000000, 67.952148
1745.000000, 67.194130
1746.000000, 66.524315
1747.000000, 65.910027
1748.000000, 65.150513
1749.000000, 64.613632
1750.000000, 64.026489
1751.000000, 63.436932
1752.000000, 62.941723
1753.000000, 62.526279
1754.000000, 62.121487
1755.000000, 61.743713
1756.000000, 61.406284
1757.000000, 61.096596
1758.000000, 60.792889
1759.000000, 60.579414
1760.000000, 60.324848
1761.000000, 60.162769
1762.000000, 60.032333
1763.000000, 59.923054
1764.000000, 59.834057
1765.000000, 59.909492
1766.000000, 59.789639
1767.000000, 59.904289
1768.000000, 59.964554
1769.000000, 60.110653
1770.000000, 60.229420
1771.000000, 60.489208
1772.000000, 60.676308
1773.000000, 60.981663
1774.000000, 61.287003
1775.000000, 61.690022
1776.000000, 62.035282
1777.000000, 62.493698
1778.000000, 62.922363
1779.000000, 63.363438
1780.000000, 63.911842
1781.000000, 64.485008
1782.000000, 65.030060
1783.000000, 65.633163
1784.000000, 66.375549
1785.000000, 66.989510
1786.000000, 67.744987
1787.000000, 68.423500
1788.000000, 69.164642
1789.000000, 69.916389
1790.000000, 70.687447
1791.000000, 71.442398
1792.000000, 72.258659
1793.000000, 73.168198
1794.000000, 74.069260
1795.000000, 74.926193
1796.000000, 75.727638
1797.000000, 76.554451
1798.000000, 77.495369
1799.000000, 78.377548
1800.000000, 79.256783
1801.000000, 80.151169
1802.000000, 80.863098
1803.000000, 81.748703
1804.000000, 82.541817
1805.000000, 83.269951
1806.000000, 84.235451
1807.000000, 84.882072
1808.000000, 85.629265
1809.000000, 86.257042
1810.000000, 86.780075
1811.000000, 87.325554
1812.000000, 87.741623
1813.000000, 88.331482
1814.000000, 88.697830
1815.000000, 89.001328
1816.000000, 89.398811
1817.000000, 89.363815
1818.000000, 89.698448
1819.000000, 89.910690
1820.000000, 89.901894
1821.000000, 89.971939
1822.000000, 90.014816
1823.000000, 89.690903
1824.000000, 89.436806
1825.000000, 89.239143
1826.000000, 89.046570
1827.000000, 88.575600
1828.000000, 88.105057
1829.000000, 87.794609
1830.000000, 87.191238
1831.000000, 86.857765
1832.000000, 86.099747
1833.000000, 85.547783
1834.000000, 84.969551
1835.000000, 84.401329
1836.000000, 83.702515
1837.000000, 83.034935
1838.000000, 82.226059
1839.000000, 81.592781
1840.000000, 80.871040
1841.000000, 80.228584
1842.000000, 79.464813
1843.000000, 78.625198
1844.000000, 78.024887
1845.000000, 77.305237
1846.000000, 76.733643
1847.000000, 75.909286
1848.000000, 75.300613
1849.000000, 74.550644
1850.000000, 73.978905
1851.000000, 73.390060
1852.000000, 72.884109
1853.000000, 72.258667
1854.000000, 71.715935
1855.000000, 71.213142
1856.000000, 70.763809
1857.000000, 70.254433
1858.000000, 69.715515
1859.000000, 69.270355
1860.000000, 68.834946
1861.000000, 68.496628
1862.000000, 68.033287
1863.000000, 67.849655
1864.000000, 67.433373
1865.000000, 67.214180
1866.000000, 66.901627
1867.000000, 66.706650
1868.000000, 66.438095
1869.000000, 66.262794
1870.000000, 66.160843
1871.000000, 65.856735
1872.000000, 65.830734
1873.000000, 65.666313
1874.000000, 65.651466
1875.000000, 65.607033
1876.000000, 65.647957
1877.000000, 65.625778
1878.000000, 65.622154
1879.000000, 65.726097
1880.000000, 65.834473
1881.000000, 65.910774
1882.000000, 66.027496
1883.000000, 66.188911
1884.000000, 66.337311
1885.000000, 66.571419
1886.000000, 66.858139
1887.000000, 67.060417
1888.000000, 67.228920
1889.000000, 67.589699
1890.000000, 67.831566
1891.000000, 68.264130
1892.000000, 68.548195
1893.000000, 69.037865
1894.000000, 69.328674
1895.000000, 69.732124
1896.000000, 70.138626
1897.000000, 70.608681
1898.000000, 70.983253
1899.000000, 71.533607
1900.000000, 72.034157
1901.000000, 72.543541
1902.000000, 73.020569
1903.000000, 73.688950
1904.000000, 74.164352
1905.000000, 74.651070
1906.000000, 75.222443
1907.000000, 75.859756
1908.000000, 76.497635
1909.000000, 77.106407
1910.000000, 77.536102
1911.000000, 78.238693
1912.000000, 78.847748
1913.000000, 79.558105
1914.000000, 79.959679
1915.000000, 80.692909
1916.000000, 81.319366
1917.000000, 81.907318
1918.000000, 82.347595
1919.000000, 83.057846
1920.000000, 83.544121
1921.000000, 84.133606
1922.000000, 84.686989
1923.000000, 85.111252
1924.000000, 85.540634
1925.000000, 86.123901
1926.000000, 86.565651
1927.000000, 87.006157
1928.000000, 87.397758
1929.000000, 87.894318
1930.000000, 88.219696
1931.000000, 88.476723
1932.000000, 88.752670
1933.000000, 88.966522
1934.000000, 89.166046
1935.000000, 89.395660
1936.000000, 89.527840
1937.000000, 89.622948
1938.000000, 89.704536
1939.000000, 89.871613
1940.000000, 89.826546
1941.000000, 89.764793
1942.000000, 89.700905
1943.000000, 89.553940
1944.000000, 89.412933
1945.000000, 89.307426
1946.000000, 89.213585
1947.000000, 88.917801
1948.000000, 88.578453
1949.000000, 88.392464
1950.000000, 88.166924
1951.000000, 87.803421
1952.000000, 87.415520
1953.000000, 87.023605
1954.000000, 86.671989
1955.000000, 86.204742
1956.000000, 85.734215
1957.000000, 85.321251
1958.000000, 84.882027
1959.000000, 84.435669
1960.000000, 83.976418
1961.000000, 83.500694
1962.000000, 82.935509
1963.000000, 82.585442
1964.000000, 82.054276
1965.000000, 81.572250
1966.000000, 81.102310
1967.000000, 80.559502
1968.000000, 80.141457
1969.000000, 79.683311
1970.000000, 79.210976
1971.000000, 78.764267
1972.000000, 78.317001
1973.000000, 77.827576
1974.000000, 77.428833
1975.000000, 76.976913
1976.000000, 76.526184
1977.000000, 76.092407
1978.000000, 75.660538
1979.000000, 75.295822
1980.000000, 74.974281
1981.000000, 74.581818
1982.000000, 74.377502
1983.000000, 73.974220
1984.000000, 73.636498
1985.000000, 73.345734
1986.000000, 72.987770
1987.000000, 72.817596
1988.000000, 72.466400
1989.000000, 72.203156
1990.000000, 72.041199
1991.000000, 71.878395
1992.000000, 71.591812
1993.000000, 71.396484
1994.000000, 71.212318
1995.000000, 71.047905
1996.000000, 70.870232
1997.000000, 70.770409
1998.000000, 70.720200
1999.000000, 70.559700
2000.000000, 70.514244
2001.000000, 70.476021
2002.000000, 70.466492
2003.000000, 70.396942
2004.000000, 70.393654
2005.000000, 70.371307
2006.000000, 70.348351
2007.000000, 70.429207
2008.000000, 70.503716
2009.000000, 70.505363
2010.000000, 70.578255
2011.000000, 70.667305
2012.000000, 70.816574
2013.000000, 70.887360
2014.000000, 71.069176
2015.000000, 71.245926
2016.000000, 71.339264
2017.000000, 71.624336
2018.000000, 71.680206
2019.000000, 72.043335
2020.000000, 72.129776
2021.000000, 72.463348
2022.000000, 72.711029
2023.000000, 72.908440
2024.000000, 73.226082
2025.000000, 73.392120
2026.000000, 73.719070
2027.000000, 73.964348
2028.000000, 74.336052
2029.000000, 74.575218
2030.000000, 74.908051
2031.000000, 75.211739
2032.000000, 75.558342
2033.000000, 75.981133
2034.000000, 76.282761
2035.000000, 76.641434
2036.000000, 76.961945
2037.000000, 77.336266
2038.000000, 77.668289
2039.000000, 78.178368
2040.000000, 78.446053
2041.000000, 78.770844
2042.000000, 79.208305
2043.000000, 79.581520
2044.000000, 79.944595
2045.000000, 80.343231
2046.000000, 80.683449
2047.000000, 81.161659
2048.000000, 81.514595
2049.000000, 81.888130
2050.000000, 82.151108
2051.000000, 82.480583
2052.000000, 82.905540
2053.000000, 83.327118
2054.000000, 83.484482
2055.000000, 83.801285
2056.000000, 84.087959
2057.000000, 84.416450
2058.000000, 84.664230
2059.000000, 85.009178
2060.000000, 85.122536
2061.000000, 85.557671
2062.000000, 85.641220
2063.000000, 85.994293
2064.000000, 86.105331
2065.000000, 86.336937
2066.000000, 86.453758
2067.000000, 86.601860
2068.000000, 86.703865
2069.000000, 86.792801
2070.000000, 86.848137
2071.000000, 86.920319
2072.000000, 86.875984
2073.000000, 86.901123
2074.000000, 86.897423
2075.000000, 86.917404
2076.000000, 86.886856
2077.000000, 86.690643
2078.000000, 86.755280
2079.000000, 86.544861
2080.000000, 86.480385
2081.000000, 86.476936
2082.000000, 86.230484
2083.000000, 86.220619
2084.000000, 85.924751
2085.000000, 85.688766
2086.000000, 85.634949
2087.000000, 85.308922
2088.000000, 85.054733
2089.000000, 84.858932
2090.000000, 84.593620
2091.000000, 84.385498
2092.000000, 84.007774
2093.000000, 83.844528
2094.000000, 83.476166
2095.000000, 83.210663
2096.000000, 82.932922
2097.000000, 82.729736
2098.000000, 82.241478
2099.000000, 82.023933
2100.000000, 81.778015
2101.000000, 81.431595
2102.000000, 81.086792
2103.000000, 80.771065
2104.000000, 80.408890
2105.000000, 80.126343
2106.000000, 79.790703
2107.000000, 79.467628
2108.000000, 79.132423
2109.000000, 78.847710
2110.000000, 78.538765
2111.000000, 78.115067
2112.000000, 77.830933
2113.000000, 77.473709
2114.000000, 77.226768
2115.000000, 76.768776
2116.000000, 76.628929
2117.000000, 76.260185
2118.000000, 75.969109
2119.000000, 75.661072
2120.000000, 75.331841
2121.000000, 75.030563
2122.000000, 74.745918
2123.000000, 74.432602
2124.000000, 74.100639
2125.000000, 73.880371
2126.000000, 73.513191
2127.000000, 73.287064
2128.000000, 72.831467
2129.000000, 72.596046
2130.000000, 72.248962
2131.000000, 71.877975
2132.000000, 71.622841
2133.000000, 71.255379
2134.000000, 70.972137
2135.000000, 70.840958
2136.000000, 70.584305
2137.000000, 70.477219
2138.000000, 70.395149
2139.000000, 70.356674
2140.000000, 70.368530
2141.000000, 70.425484
2142.000000, 70.344933
2143.000000, 70.414452
2144.000000, 70.458916
2145.000000, 70.437637
2146.000000, 70.520142
2147.000000, 70.456757
2148.000000, 70.423683
2149.000000, 70.449318
2150.000000, 70.351311
2151.000000, 70.374130
2152.000000, 70.252457
2153.000000, 70.148079
2154.000000, 70.153549
2155.000000, 70.051453
2156.000000, 69.915947
2157.000000, 69.847466
2158.000000, 69.709084
2159.000000, 69.641396
2160.000000, 69.544228
2161.000000, 69.615929
2162.000000, 69.599167
2163.000000, 69.614220
2164.000000, 69.817192
2165.000000, 69.949333
2166.000000, 70.292061
2167.000000, 70.673698
2168.000000, 70.923309
2169.000000, 71.292137
2170.000000, 71.601723
2171.000000, 72.125771
2172.000000, 72.334160
2173.000000, 72.703697
2174.000000, 73.026138
2175.000000, 73.260277
2176.000000, 73.466858
2177.000000, 73.784500
2178.000000, 73.947533
2179.000000, 74.183014
2180.000000, 74.355415
2181.000000, 74.673042
2182.000000, 74.809853
2183.000000, 74.988136
2184.000000, 75.137642
2185.000000, 75.394714
2186.000000, 75.624153
2187.000000, 75.750557
2188.000000, 75.967041
2189.000000, 76.267975
2190.000000, 76.365105
2191.000000, 76.600060
2192.000000, 76.888435
2193.000000, 77.141533
2194.000000, 77.420967
2195.000000, 77.669426
2196.000000, 77.817223
2197.000000, 78.126801
2198.000000, 78.334023
2199.000000, 78.547585
2200.000000, 78.825096
2201.000000, 78.967445
2202.000000, 79.207459
2203.000000, 79.406914
2204.000000, 79.570801
2205.000000, 79.780098
2206.000000, 79.950043
2207.000000, 80.289330
2208.000000, 80.317215
2209.000000, 80.488281
2210.000000, 80.696587
2211.000000, 81.064804
2212.000000, 81.159523
2213.000000, 81.458160
2214.000000, 81.524803
2215.000000, 81.779358
2216.000000, 82.006477
2217.000000, 82.171806
2218.000000, 82.374916
2219.000000, 82.376579
2220.000000, 82.583824
2221.000000, 82.768654
2222.000000, 82.809433
2223.000000, 82.776901
2224.000000, 82.976509
2225.000000, 82.900314
2226.000000, 82.924644
2227.000000, 82.899757
2228.000000, 82.957886
2229.000000, 82.957542
2230.000000, 82.797234
2231.000000, 82.793381
2232.000000, 82.845474
2233.000000, 82.680206
2234.000000, 82.689125
2235.000000, 82.686699
2236.000000, 82.611534
2237.000000, 82.404861
2238.000000, 82.471130
2239.000000, 82.207001
2240.000000, 82.249802
2241.000000, 82.172424
2242.000000, 81.918968
2243.000000, 81.777473
2244.000000, 81.441193
2245.000000, 81.334076
2246.000000, 81.183044
2247.000000, 80.872620
2248.000000, 80.586502
2249.000000, 80.413757
2250.000000, 79.940239
2251.000000, 79.780754
2252.000000, 79.314056
2253.000000, 79.070473
2254.000000, 78.599373
2255.000000, 78.299896
2256.000000, 77.907166
2257.000000, 77.528473
2258.000000, 77.121994
2259.000000, 76.570457
2260.000000, 76.171906
2261.000000, 75.789795
2262.000000, 75.310410
2263.000000, 74.856529
2264.000000, 74.382744
2265.000000, 73.952034
2266.000000, 73.372963
2267.000000, 72.961060
2268.000000, 72.436501
2269.000000, 72.040489
2270.000000, 71.586563
2271.000000, 71.136139
2272.000000, 70.742729
2273.000000, 70.340408
2274.000000, 70.120026
2275.000000, 69.687691
2276.000000, 69.535759
2277.000000, 69.385376
2278.000000, 69.168655
2279.000000, 68.863419
2280.000000, 68.658035
2281.000000, 68.467247
2282.000000, 68.270660
2283.000000, 67.983887
2284.000000, 67.775352
2285.000000, 67.534813
2286.000000, 67.225517
2287.000000, 67.002045
2288.000000, 66.706451
2289.000000, 66.560287
2290.000000, 66.273567
2291.000000, 66.079025
2292.000000, 65.941566
2293.000000, 65.666679
2294.000000, 65.405090
2295.000000, 65.251770
2296.000000, 64.998474
2297.000000, 64.754486
2298.000000, 64.599693
2299.000000, 64.384499
2300.000000, 64.252693
2301.000000, 64.139244
2302.000000, 63.977158
2303.000000, 63.780315
2304.000000, 63.704254
2305.000000, 63.579250
2306.000000, 63.431061
2307.000000, 63.310665
2308.000000, 63.161522
2309.000000, 63.017727
2310.000000, 62.782722
2311.000000, 62.676491
2312.000000, 62.576748
2313.000000, 62.534569
2314.000000, 62.361248
2315.000000, 62.374813
2316.000000, 62.424183
2317.000000, 62.543827
2318.000000, 62.605572
2319.000000, 62.848705
2320.000000, 63.003914
2321.000000, 63.332684
2322.000000, 63.517319
2323.000000, 63.742245
2324.000000, 63.946373
2325.000000, 64.173386
2326.000000, 64.253082
2327.000000, 64.500687
2328.000000, 64.761330
2329.000000, 64.819695
2330.000000, 65.027016
2331.000000, 65.234955
2332.000000, 65.395424
2333.000000, 65.530624
2334.000000, 65.829361
2335.000000, 65.915527
2336.000000, 66.065727
2337.000000, 66.236229
2338.000000, 66.367363
2339.000000, 66.440536
2340.000000, 66.607788
2341.000000, 66.751915
2342.000000, 66.790962
2343.000000, 66.950676
2344.000000, 67.042511
2345.000000, 67.130295
2346.000000, 67.273773
2347.000000, 67.356476
2348.000000, 67.489342
2349.000000, 67.670029
2350.000000, 67.745651
2351.000000, 67.849022
2352.000000, 68.037750
2353.000000, 68.199310
2354.000000, 68.300613
2355.000000, 68.554291
2356.000000, 68.680832
2357.000000, 68.829330
2358.000000, 68.896294
2359.000000, 69.109940
2360.000000, 69.232269
2361.000000, 69.395012
2362.000000, 69.463882
2363.000000, 69.591026
2364.000000, 69.873444
2365.000000, 69.887512
2366.000000, 70.163948
2367.000000, 70.247643
2368.000000, 70.472420
2369.000000, 70.655670
2370.000000, 70.765091
2371.000000, 71.044388
2372.000000, 71.263596
2373.000000, 71.366554
2374.000000, 71.487717
2375.000000, 71.676399
2376.000000, 72.022514
2377.000000, 72.127380
2378.000000, 72.250366
2379.000000, 72.493828
2380.000000, 72.614677
2381.000000, 72.796753
2382.000000, 72.842361
2383.000000, 72.909325
2384.000000, 73.053665
2385.000000, 73.143616
2386.000000, 73.219093
2387.000000, 73.306801
2388.000000, 73.445206
2389.000000, 73.489853
2390.000000, 73.596748
2391.000000, 73.714729
2392.000000, 73.684196
2393.000000, 73.837250
2394.000000, 73.905251
2395.000000, 73.948410
2396.000000, 73.899483
2397.000000, 74.040565
2398.000000, 74.025414
2399.000000, 74.102280
2400.000000, 74.242676
2401.000000, 74.299683
2402.000000, 74.344841
2403.000000, 74.454735
2404.000000, 74.553291
2405.000000, 74.684128
2406.000000, 74.920120
2407.000000, 75.106773
2408.000000, 75.171066
2409.000000, 75.305435
2410.000000, 75.507622
2411.000000, 75.582520
2412.000000, 75.734726
2413.000000, 75.861290
2414.000000, 75.829178
2415.000000, 76.022247
2416.000000, 76.078209
2417.000000, 76.110321
2418.000000, 76.263031
2419.000000, 76.237068
2420.000000, 76.192001
2421.000000, 76.239105
2422.000000, 76.217613
2423.000000, 76.113800
2424.000000, 76.102951
2425.000000, 76.073402
2426.000000, 76.103271
2427.000000, 75.989113
2428.000000, 75.859833
2429.000000, 75.780525
2430.000000, 75.705071
2431.000000, 75.605217
2432.000000, 75.497559
2433.000000, 75.248398
2434.000000, 75.168266
2435.000000, 74.941612
2436.000000, 74.708488
2437.000000, 74.584763
2438.000000, 74.381111
2439.000000, 74.047943
2440.000000, 73.701027
2441.000000, 73.551598
2442.000000, 73.175331
2443.000000, 72.735901
2444.000000, 72.461769
2445.000000, 71.993530
2446.000000, 71.572563
2447.000000, 71.138016
2448.000000, 70.858223
2449.000000, 70.307907
2450.000000, 70.048241
2451.000000, 69.633675
2452.000000, 69.200203
2453.000000, 68.859917
2454.000000, 68.408676
2455.000000, 68.124573
2456.000000, 67.719704
2457.000000, 67.420158
2458.000000, 66.935616
2459.000000, 66.655899
2460.000000, 66.533958
2461.000000, 66.203148
2462.000000, 66.172775
2463.000000, 66.162071
2464.000000, 66.081108
2465.000000, 66.065910
2466.000000, 66.307983
2467.000000, 66.379036
2468.000000, 66.484192
2469.000000, 66.690620
2470.000000, 66.827003
2471.000000, 66.906418
2472.000000, 66.972450
2473.000000, 67.188843
2474.000000, 67.237267
2475.000000, 67.385590
2476.000000, 67.475525
2477.000000, 67.514069
2478.000000, 67.448250
2479.000000, 67.504250
2480.000000, 67.514732
2481.000000, 67.425385
2482.000000, 67.424240
2483.000000, 67.282455
2484.000000, 67.061844
2485.000000, 67.104782
2486.000000, 66.920952
2487.000000, 66.839279
2488.000000, 66.657600
2489.000000, 66.558556
2490.000000, 66.410118
2491.000000, 66.286591
2492.000000, 66.172478
2493.000000, 66.059586
2494.000000, 65.922752
2495.000000, 65.854836
2496.000000, 65.719894
2497.000000, 65.575882
2498.000000, 65.446053
2499.000000, 65.372932
2500.000000, 65.215340
2501.000000, 64.966324
2502.000000, 65.076881
2503.000000, 64.793747
2504.000000, 64.663620
2505.000000, 64.641396
2506.000000, 64.474121
2507.000000, 64.410141
2508.000000, 64.326912
2509.000000, 64.295418
2510.000000, 64.151413
2511.000000, 64.055145
2512.000000, 64.040993
2513.000000, 64.097694
2514.000000, 64.019028
2515.000000, 64.041801
2516.000000, 64.071861
2517.000000, 64.028969
2518.000000, 64.221802
2519.000000, 64.287544
2520.000000, 64.250191
2521.000000, 64.299973
2522.000000, 64.479218
2523.000000, 64.498589
2524.000000, 64.537964
2525.000000, 64.651527
2526.000000, 64.752060
2527.000000, 64.842262
2528.000000, 64.949211
2529.000000, 65.014305
2530.000000, 65.111092
2531.000000, 65.201546
2532.000000, 65.480736
2533.000000, 65.430138
2534.000000, 65.502617
2535.000000, 65.578682
2536.000000, 65.755165
2537.000000, 65.769241
2538.000000, 65.824120
2539.000000, 65.884209
2540.000000, 65.926704
2541.000000, 66.053375
2542.000000, 66.102730
2543.000000, 66.112709
2544.000000, 66.116814
2545.000000, 66.238518
2546.000000, 66.334366
2547.000000, 66.339592
2548.000000, 66.338089
2549.000000, 66.440041
2550.000000, 66.588387
2551.000000, 66.513985
2552.000000, 66.529099
2553.000000, 66.745697
2554.000000, 66.723740
2555.000000, 66.785309
2556.000000, 66.829872
2557.000000, 67.014175
2558.000000, 66.969742
2559.000000, 67.084229
2560.000000, 67.281563
2561.000000, 67.252693
2562.000000, 67.461243
2563.000000, 67.629120
2564.000000, 67.716965
2565.000000, 67.780708
2566.000000, 67.992630
2567.000000, 68.118706
2568.000000, 68.193260
2569.000000, 68.316666
2570.000000, 68.423569
2571.000000, 68.587959
2572.000000, 68.673462
2573.000000, 68.799469
2574.000000, 69.079651
2575.000000, 69.009964
2576.000000, 69.226768
2577.000000, 69.238571
2578.000000, 69.365540
2579.000000, 69.518318
2580.000000, 69.684128
2581.000000, 69.956955
2582.000000, 70.039871
2583.000000, 70.246384
2584.000000, 70.444824
2585.000000, 70.678452
2586.000000, 70.826759
2587.000000, 71.104073
2588.000000, 71.265450
2589.000000, 71.480515
2590.000000, 71.616219
2591.000000, 71.835350
2592.000000, 71.972847
2593.000000, 72.227966
2594.000000, 72.487411
2595.000000, 72.577599
2596.000000, 72.793472
2597.000000, 72.950600
2598.000000, 73.138847
2599.000000, 73.256851
2600.000000, 73.340073
