# Wavelength  (nm), Transmission (%)
200.000000, -0.000009
201.000000, -0.000019
202.000000, -0.000003
203.000000, -0.000002
204.000000, -0.000008
205.000000, -0.000003
206.000000, -0.000007
207.000000, -0.000000
208.000000, -0.000007
209.000000, -0.000013
210.000000, 0.000008
211.000000, -0.000008
212.000000, 0.000001
213.000000, 0.000011
214.000000, -0.000008
215.000000, 0.000001
216.000000, -0.000006
217.000000, -0.000002
218.000000, 0.000012
219.000000, -0.000008
220.000000, 0.000011
221.000000, 0.000007
222.000000, -0.000004
223.000000, -0.000001
224.000000, 0.000006
225.000000, 0.000001
226.000000, 0.000007
227.000000, 0.000005
228.000000, 0.000010
229.000000, 0.000009
230.000000, 0.000006
231.000000, 0.000006
232.000000, 0.000004
233.000000, 0.000010
234.000000, 0.000011
235.000000, 0.000004
236.000000, 0.000011
237.000000, 0.000015
238.000000, 0.000017
239.000000, 0.000003
240.000000, 0.000010
241.000000, -0.000001
242.000000, 0.000009
243.000000, 0.000013
244.000000, 0.000001
245.000000, 0.000005
246.000000, 0.000004
247.000000, 0.000019
248.000000, 0.000005
249.000000, 0.000009
250.000000, 0.000014
251.000000, 0.000006
252.000000, 0.000002
253.000000, 0.000011
254.000000, 0.000009
255.000000, 0.000001
256.000000, 0.000014
257.000000, -0.000003
258.000000, 0.000012
259.000000, -0.000002
260.000000, 0.000010
261.000000, 0.000010
262.000000, -0.000001
263.000000, 0.000008
264.000000, 0.000016
265.000000, 0.000004
266.000000, 0.000009
267.000000, 0.000001
268.000000, 0.000019
269.000000, 0.000008
270.000000, 0.000019
271.000000, 0.000006
272.000000, 0.000007
273.000000, 0.000020
274.000000, 0.000011
275.000000, 0.000003
276.000000, 0.000011
277.000000, 0.000009
278.000000, 0.000007
279.000000, 0.000008
280.000000, 0.000014
281.000000, -0.000001
282.000000, 0.000003
283.000000, 0.000014
284.000000, 0.000009
285.000000, 0.000010
286.000000, 0.000019
287.000000, 0.000008
288.000000, 0.000004
289.000000, 0.000018
290.000000, 0.000008
291.000000, 0.000025
292.000000, 0.000005
293.000000, 0.000007
294.000000, 0.000022
295.000000, 0.000012
296.000000, 0.000006
297.000000, 0.000017
298.000000, 0.000005
299.000000, 0.000018
300.000000, 0.000010
301.000000, 0.000012
302.000000, 0.000025
303.000000, 0.000005
304.000000, 0.000002
305.000000, 0.000018
306.000000, 0.000009
307.000000, 0.000007
308.000000, 0.000010
309.000000, 0.000028
310.000000, 0.000002
311.000000, 0.000002
312.000000, 0.000006
313.000000, -0.000001
314.000000, 0.000010
315.000000, 0.000024
316.000000, -0.000005
317.000000, 0.000010
318.000000, -0.000000
319.000000, -0.000002
320.000000, 0.000019
321.000000, 0.000001
322.000000, 0.000008
323.000000, 0.000002
324.000000, 0.000008
325.000000, 0.000035
326.000000, 0.000007
327.000000, 0.000007
328.000000, 0.000009
329.000000, 0.000021
330.000000, -0.000003
331.000000, -0.000004
332.000000, 0.000016
333.000000, 0.000006
334.000000, 0.000004
335.000000, 0.000004
336.000000, 0.000001
337.000000, -0.000002
338.000000, 0.000030
339.000000, 0.000008
340.000000, 0.000014
341.000000, -0.000009
342.000000, 0.000000
343.000000, 0.000009
344.000000, -0.000008
345.000000, -0.000002
346.000000, 0.000009
347.000000, 0.000007
348.000000, -0.000003
349.000000, -0.000144
350.000000, -0.000009
351.000000, 0.000005
352.000000, 0.000002
353.000000, -0.000010
354.000000, 0.000010
355.000000, -0.000010
356.000000, -0.000001
357.000000, 0.000004
358.000000, -0.000015
359.000000, 0.000005
360.000000, -0.000017
361.000000, 0.000003
362.000000, 0.000001
363.000000, -0.000015
364.000000, 0.000012
365.000000, 0.000005
366.000000, 0.000002
367.000000, -0.000006
368.000000, -0.000003
369.000000, 0.000003
370.000000, 0.000003
371.000000, -0.000010
372.000000, 0.000006
373.000000, -0.000001
374.000000, -0.000001
375.000000, 0.000004
376.000000, -0.000002
377.000000, -0.000007
378.000000, 0.000002
379.000000, -0.000000
380.000000, -0.000004
381.000000, 0.000003
382.000000, -0.000000
383.000000, -0.000007
384.000000, 0.000004
385.000000, 0.000002
386.000000, 0.000005
387.000000, 0.000001
388.000000, -0.000003
389.000000, -0.000004
390.000000, 0.000006
391.000000, 0.000004
392.000000, 0.000000
393.000000, 0.000006
394.000000, -0.000002
395.000000, -0.000004
396.000000, 0.000005
397.000000, 0.000004
398.000000, 0.000002
399.000000, -0.000016
400.000000, 0.000005
401.000000, 0.000005
402.000000, -0.000005
403.000000, -0.000002
404.000000, -0.000010
405.000000, 0.000002
406.000000, 0.000006
407.000000, 0.000004
408.000000, -0.000008
409.000000, -0.000003
410.000000, 0.000003
411.000000, 0.000004
412.000000, -0.000004
413.000000, -0.000009
414.000000, -0.000001
415.000000, -0.000001
416.000000, 0.000005
417.000000, -0.000005
418.000000, -0.000004
419.000000, -0.000001
420.000000, -0.000010
421.000000, -0.000003
422.000000, 0.000008
423.000000, 0.000002
424.000000, -0.000013
425.000000, 0.000005
426.000000, 0.000005
427.000000, -0.000010
428.000000, 0.000007
429.000000, 0.000000
430.000000, 0.000005
431.000000, -0.000007
432.000000, 0.000003
433.000000, 0.000004
434.000000, 0.000004
435.000000, -0.000013
436.000000, 0.000002
437.000000, -0.000003
438.000000, 0.000001
439.000000, -0.000005
440.000000, -0.000003
441.000000, -0.000006
442.000000, 0.000002
443.000000, -0.000001
444.000000, -0.000001
445.000000, 0.000000
446.000000, 0.000002
447.000000, 0.000002
448.000000, -0.000014
449.000000, 0.000006
450.000000, 0.000004
451.000000, 0.000008
452.000000, -0.000002
453.000000, 0.000002
454.000000, 0.000009
455.000000, 0.000002
456.000000, 0.000002
457.000000, 0.000002
458.000000, 0.000005
459.000000, 0.000006
460.000000, 0.000002
461.000000, -0.000001
462.000000, 0.000002
463.000000, -0.000001
464.000000, 0.000004
465.000000, 0.000001
466.000000, 0.000006
467.000000, 0.000006
468.000000, 0.000001
469.000000, 0.000002
470.000000, 0.000000
471.000000, 0.000001
472.000000, 0.000006
473.000000, 0.000001
474.000000, -0.000003
475.000000, 0.000003
476.000000, -0.000000
477.000000, -0.000004
478.000000, 0.000007
479.000000, 0.000003
480.000000, 0.000002
481.000000, -0.000001
482.000000, -0.000006
483.000000, 0.000003
484.000000, -0.000003
485.000000, 0.000002
486.000000, -0.000006
487.000000, -0.000001
488.000000, 0.000001
489.000000, -0.000004
490.000000, -0.000002
491.000000, -0.000001
492.000000, -0.000002
493.000000, 0.000005
494.000000, -0.000003
495.000000, 0.000000
496.000000, 0.000006
497.000000, 0.000000
498.000000, 0.000006
499.000000, -0.000002
500.000000, -0.000003
501.000000, 0.000006
502.000000, -0.000000
503.000000, 0.000010
504.000000, 0.000007
505.000000, -0.000006
506.000000, 0.000002
507.000000, 0.000000
508.000000, -0.000001
509.000000, 0.000000
510.000000, 0.000010
511.000000, 0.000002
512.000000, 0.000006
513.000000, -0.000001
514.000000, 0.000003
515.000000, 0.000006
516.000000, 0.000002
517.000000, 0.000004
518.000000, 0.000001
519.000000, 0.000003
520.000000, -0.000001
521.000000, -0.000003
522.000000, -0.000001
523.000000, 0.000001
524.000000, 0.000008
525.000000, -0.000003
526.000000, 0.000005
527.000000, 0.000001
528.000000, -0.000002
529.000000, 0.000004
530.000000, 0.000002
531.000000, 0.000001
532.000000, 0.000004
533.000000, 0.000001
534.000000, 0.000001
535.000000, 0.000000
536.000000, 0.000005
537.000000, 0.000003
538.000000, -0.000001
539.000000, -0.000001
540.000000, 0.000006
541.000000, -0.000002
542.000000, 0.000013
543.000000, 0.000001
544.000000, -0.000002
545.000000, 0.000007
546.000000, 0.000000
547.000000, 0.000002
548.000000, 0.000012
549.000000, -0.000000
550.000000, 0.000004
551.000000, -0.000001
552.000000, 0.000001
553.000000, 0.000008
554.000000, -0.000003
555.000000, 0.000004
556.000000, 0.000003
557.000000, 0.000003
558.000000, 0.000005
559.000000, 0.000003
560.000000, -0.000000
561.000000, 0.000003
562.000000, 0.000004
563.000000, -0.000003
564.000000, 0.000006
565.000000, -0.000002
566.000000, 0.000002
567.000000, -0.000002
568.000000, 0.000009
569.000000, -0.000005
570.000000, -0.000001
571.000000, 0.000001
572.000000, 0.000007
573.000000, -0.000004
574.000000, -0.000009
575.000000, 0.000000
576.000000, -0.000001
577.000000, 0.000002
578.000000, 0.000005
579.000000, -0.000003
580.000000, -0.000005
581.000000, 0.000002
582.000000, 0.000002
583.000000, 0.000008
584.000000, -0.000006
585.000000, 0.000008
586.000000, -0.000003
587.000000, -0.000011
588.000000, -0.000001
589.000000, -0.000004
590.000000, -0.000016
591.000000, 0.000002
592.000000, 0.000002
593.000000, -0.000008
594.000000, -0.000000
595.000000, -0.000005
596.000000, 0.000006
597.000000, 0.000005
598.000000, -0.000005
599.000000, 0.000003
600.000000, 0.000009
601.000000, -0.000004
602.000000, 0.000009
603.000000, 0.000003
604.000000, 0.000005
605.000000, 0.000008
606.000000, -0.000002
607.000000, 0.000000
608.000000, 0.000003
609.000000, 0.000008
610.000000, 0.000010
611.000000, 0.000007
612.000000, 0.000015
613.000000, 0.000008
614.000000, 0.000008
615.000000, 0.000001
616.000000, 0.000008
617.000000, -0.000001
618.000000, 0.000011
619.000000, 0.000000
620.000000, 0.000007
621.000000, 0.000006
622.000000, -0.000001
623.000000, 0.000009
624.000000, 0.000009
625.000000, 0.000013
626.000000, 0.000024
627.000000, 0.000017
628.000000, 0.000017
629.000000, 0.000013
630.000000, 0.000009
631.000000, 0.000007
632.000000, 0.000003
633.000000, 0.000004
634.000000, 0.000007
635.000000, 0.000007
636.000000, 0.000010
637.000000, 0.000009
638.000000, 0.000003
639.000000, 0.000003
640.000000, 0.000019
641.000000, 0.000025
642.000000, 0.000035
643.000000, 0.000041
644.000000, 0.000037
645.000000, 0.000016
646.000000, 0.000014
647.000000, 0.000015
648.000000, 0.000011
649.000000, 0.000007
650.000000, 0.000005
651.000000, 0.000010
652.000000, 0.000009
653.000000, 0.000009
654.000000, 0.000012
655.000000, 0.000009
656.000000, 0.000018
657.000000, 0.000029
658.000000, 0.000044
659.000000, 0.000074
660.000000, 0.000102
661.000000, 0.000093
662.000000, 0.000078
663.000000, 0.000038
664.000000, 0.000028
665.000000, 0.000022
666.000000, 0.000017
667.000000, 0.000014
668.000000, 0.000021
669.000000, 0.000009
670.000000, 0.000017
671.000000, 0.000017
672.000000, 0.000019
673.000000, 0.000036
674.000000, 0.000039
675.000000, 0.000082
676.000000, 0.000151
677.000000, 0.000208
678.000000, 0.000178
679.000000, 0.000106
680.000000, 0.000070
681.000000, 0.000030
682.000000, 0.000027
683.000000, 0.000030
684.000000, 0.000010
685.000000, 0.000015
686.000000, 0.000027
687.000000, 0.000017
688.000000, 0.000016
689.000000, 0.000032
690.000000, 0.000024
691.000000, 0.000040
692.000000, 0.000067
693.000000, 0.000139
694.000000, 0.000269
695.000000, 0.000413
696.000000, 0.000417
697.000000, 0.000270
698.000000, 0.000159
699.000000, 0.000133
700.000000, 0.000116
701.000000, 0.000160
702.000000, 0.000276
703.000000, 0.000422
704.000000, 0.000377
705.000000, 0.000182
706.000000, 0.000078
707.000000, 0.000022
708.000000, 0.000016
709.000000, 0.000008
710.000000, 0.000013
711.000000, 0.000006
712.000000, 0.000006
713.000000, -0.000002
714.000000, 0.000015
715.000000, 0.000007
716.000000, 0.000006
717.000000, 0.000006
718.000000, 0.000012
719.000000, 0.000023
720.000000, 0.000046
721.000000, 0.000042
722.000000, 0.000035
723.000000, 0.000003
724.000000, 0.000001
725.000000, 0.000002
726.000000, -0.000006
727.000000, 0.000012
728.000000, -0.000000
729.000000, -0.000001
730.000000, -0.000006
731.000000, 0.000015
732.000000, 0.000004
733.000000, -0.000004
734.000000, -0.000001
735.000000, 0.000014
736.000000, 0.000006
737.000000, 0.000002
738.000000, -0.000006
739.000000, -0.000001
740.000000, 0.000012
741.000000, 0.000000
742.000000, 0.000009
743.000000, 0.000001
744.000000, 0.000013
745.000000, 0.000002
746.000000, -0.000002
747.000000, 0.000003
748.000000, 0.000008
749.000000, 0.000020
750.000000, 0.000006
751.000000, -0.000002
752.000000, -0.000000
753.000000, 0.000013
754.000000, -0.000002
755.000000, 0.000000
756.000000, -0.000004
757.000000, -0.000006
758.000000, 0.000012
759.000000, -0.000002
760.000000, 0.000007
761.000000, -0.000001
762.000000, -0.000004
763.000000, 0.000010
764.000000, -0.000003
765.000000, 0.000013
766.000000, -0.000003
767.000000, -0.000001
768.000000, 0.000020
769.000000, -0.000006
770.000000, 0.000002
771.000000, -0.000002
772.000000, 0.000010
773.000000, 0.000005
774.000000, -0.000004
775.000000, 0.000006
776.000000, 0.000001
777.000000, 0.000016
778.000000, 0.000001
779.000000, 0.000002
780.000000, 0.000003
781.000000, 0.000002
782.000000, 0.000008
783.000000, -0.000002
784.000000, -0.000002
785.000000, 0.000004
786.000000, 0.000004
787.000000, 0.000008
788.000000, 0.000004
789.000000, -0.000002
790.000000, -0.000004
791.000000, 0.000001
792.000000, 0.000019
793.000000, -0.000001
794.000000, 0.000002
795.000000, 0.000002
796.000000, 0.000006
797.000000, 0.000014
798.000000, 0.000005
799.000000, -0.000001
800.000000, -0.001967
801.000000, -0.001422
802.000000, -0.001547
803.000000, -0.001867
804.000000, -0.001587
805.000000, -0.001276
806.000000, -0.001191
807.000000, -0.001676
808.000000, -0.001977
809.000000, -0.001481
810.000000, -0.001438
811.000000, -0.001219
812.000000, -0.001570
813.000000, -0.001709
814.000000, -0.001979
815.000000, -0.001326
816.000000, -0.001496
817.000000, -0.001405
818.000000, -0.001398
819.000000, -0.001378
820.000000, -0.001176
821.000000, -0.001335
822.000000, -0.001121
823.000000, -0.000990
824.000000, -0.001155
825.000000, -0.001236
826.000000, -0.001314
827.000000, -0.000957
828.000000, -0.000964
829.000000, -0.000712
830.000000, -0.001230
831.000000, -0.000848
832.000000, -0.000821
833.000000, -0.000769
834.000000, -0.000663
835.000000, -0.000713
836.000000, -0.000774
837.000000, -0.000852
838.000000, -0.000811
839.000000, -0.000880
840.000000, -0.000922
841.000000, -0.000888
842.000000, -0.000810
843.000000, -0.000812
844.000000, -0.000718
845.000000, -0.000742
846.000000, -0.000857
847.000000, -0.000761
848.000000, -0.000829
849.000000, -0.000518
850.000000, -0.000695
851.000000, -0.000789
852.000000, -0.000578
853.000000, -0.000592
854.000000, -0.000635
855.000000, -0.000667
856.000000, -0.000550
857.000000, -0.000584
858.000000, -0.000448
859.000000, -0.000568
860.000000, -0.000690
861.000000, -0.000380
862.000000, -0.000456
863.000000, -0.000515
864.000000, -0.000353
865.000000, -0.000398
866.000000, -0.000285
867.000000, -0.000266
868.000000, -0.000348
869.000000, -0.000279
870.000000, -0.000198
871.000000, -0.000313
872.000000, -0.000304
873.000000, -0.000154
874.000000, -0.000221
875.000000, -0.000203
876.000000, -0.000337
877.000000, -0.000214
878.000000, -0.000159
879.000000, -0.000169
880.000000, -0.000146
881.000000, -0.000100
882.000000, -0.000074
883.000000, 0.000024
884.000000, -0.000082
885.000000, -0.000127
886.000000, -0.000172
887.000000, -0.000201
888.000000, -0.000031
889.000000, -0.000115
890.000000, -0.000118
891.000000, -0.000190
892.000000, -0.000144
893.000000, -0.000062
894.000000, -0.000139
895.000000, -0.000040
896.000000, -0.000159
897.000000, -0.000078
898.000000, -0.000130
899.000000, -0.000163
900.000000, -0.000090
901.000000, -0.000030
902.000000, -0.000094
903.000000, -0.000076
904.000000, -0.000107
905.000000, -0.000116
906.000000, -0.000068
907.000000, -0.000159
908.000000, -0.000037
909.000000, -0.000168
910.000000, -0.000116
911.000000, -0.000096
912.000000, -0.000116
913.000000, -0.000125
914.000000, -0.000164
915.000000, -0.000086
916.000000, -0.000057
917.000000, -0.000018
918.000000, -0.000038
919.000000, -0.000164
920.000000, -0.000125
921.000000, -0.000083
922.000000, -0.000106
923.000000, -0.000095
924.000000, -0.000164
925.000000, 0.000050
926.000000, -0.000055
927.000000, -0.000091
928.000000, -0.000140
929.000000, -0.000004
930.000000, -0.000117
931.000000, -0.000039
932.000000, -0.000071
933.000000, -0.000139
934.000000, -0.000134
935.000000, -0.000117
936.000000, -0.000076
937.000000, -0.000075
938.000000, -0.000018
939.000000, -0.000039
940.000000, -0.000001
941.000000, -0.000078
942.000000, -0.000063
943.000000, -0.000061
944.000000, -0.000038
945.000000, -0.000096
946.000000, 0.000003
947.000000, -0.000046
948.000000, 0.000056
949.000000, 0.000059
950.000000, 0.000039
951.000000, 0.000091
952.000000, 0.000039
953.000000, 0.000148
954.000000, 0.000177
955.000000, 0.000237
956.000000, 0.000246
957.000000, 0.000244
958.000000, 0.000332
959.000000, 0.000453
960.000000, 0.000622
961.000000, 0.000743
962.000000, 0.000965
963.000000, 0.001112
964.000000, 0.001407
965.000000, 0.001755
966.000000, 0.002174
967.000000, 0.002696
968.000000, 0.003355
969.000000, 0.004320
970.000000, 0.005338
971.000000, 0.006729
972.000000, 0.008419
973.000000, 0.010780
974.000000, 0.013538
975.000000, 0.017563
976.000000, 0.022761
977.000000, 0.029542
978.000000, 0.038683
979.000000, 0.050705
980.000000, 0.067122
981.000000, 0.088950
982.000000, 0.120347
983.000000, 0.164272
984.000000, 0.223682
985.000000, 0.308247
986.000000, 0.427099
987.000000, 0.597299
988.000000, 0.848553
989.000000, 1.215995
990.000000, 1.721840
991.000000, 2.416093
992.000000, 3.103307
993.000000, 3.955984
994.000000, 4.736223
995.000000, 6.099482
996.000000, 7.945646
997.000000, 10.732491
998.000000, 14.654522
999.000000, 20.489449
1000.000000, 28.390440
1001.000000, 39.309124
1002.000000, 52.146278
1003.000000, 64.829147
1004.000000, 75.373108
1005.000000, 82.127426
1006.000000, 85.481865
1007.000000, 86.132828
1008.000000, 85.298088
1009.000000, 83.887383
1010.000000, 82.619019
1011.000000, 81.516388
1012.000000, 80.777023
1013.000000, 80.367210
1014.000000, 80.061302
1015.000000, 79.919502
1016.000000, 80.008301
1017.000000, 80.324509
1018.000000, 80.644966
1019.000000, 80.990913
1020.000000, 81.499916
1021.000000, 81.774994
1022.000000, 82.302841
1023.000000, 82.657440
1024.000000, 83.179558
1025.000000, 83.641609
1026.000000, 84.128014
1027.000000, 84.541725
1028.000000, 84.963257
1029.000000, 85.368988
1030.000000, 85.735199
1031.000000, 85.937347
1032.000000, 86.269257
1033.000000, 86.418083
1034.000000, 86.701431
1035.000000, 86.630722
1036.000000, 86.841003
1037.000000, 86.980240
1038.000000, 86.851440
1039.000000, 87.006371
1040.000000, 86.879837
1041.000000, 86.856697
1042.000000, 86.952271
1043.000000, 86.922981
1044.000000, 86.812889
1045.000000, 86.722717
1046.000000, 86.808784
1047.000000, 86.831398
1048.000000, 86.669281
1049.000000, 86.704018
1050.000000, 86.891136
1051.000000, 86.744621
1052.000000, 86.759384
1053.000000, 86.848305
1054.000000, 86.762146
1055.000000, 86.833984
1056.000000, 86.838425
1057.000000, 86.936256
1058.000000, 86.786263
1059.000000, 86.777870
1060.000000, 86.706238
1061.000000, 86.606560
1062.000000, 86.553925
1063.000000, 86.448708
1064.000000, 86.475845
1065.000000, 86.265129
1066.000000, 86.344948
1067.000000, 86.245407
1068.000000, 86.139610
1069.000000, 86.096985
1070.000000, 85.992851
1071.000000, 86.062912
1072.000000, 85.973335
1073.000000, 85.843605
1074.000000, 86.013268
1075.000000, 85.941559
1076.000000, 85.938820
1077.000000, 86.003342
1078.000000, 86.098312
1079.000000, 86.130890
1080.000000, 86.309364
1081.000000, 86.419182
1082.000000, 86.491982
1083.000000, 86.517944
1084.000000, 86.642174
1085.000000, 86.791702
1086.000000, 86.933502
1087.000000, 86.899826
1088.000000, 87.067757
1089.000000, 87.117165
1090.000000, 87.159904
1091.000000, 87.208847
1092.000000, 87.240623
1093.000000, 87.191040
1094.000000, 87.191627
1095.000000, 87.197578
1096.000000, 87.150963
1097.000000, 87.082962
1098.000000, 86.863731
1099.000000, 86.747704
1100.000000, 86.515991
1101.000000, 86.354286
1102.000000, 86.313667
1103.000000, 86.082748
1104.000000, 85.888084
1105.000000, 85.774727
1106.000000, 85.528030
1107.000000, 85.478607
1108.000000, 85.359100
1109.000000, 85.178535
1110.000000, 85.093239
1111.000000, 84.977951
1112.000000, 84.829483
1113.000000, 84.671417
1114.000000, 84.663536
1115.000000, 84.729179
1116.000000, 84.586998
1117.000000, 84.593758
1118.000000, 84.710152
1119.000000, 84.696198
1120.000000, 84.800507
1121.000000, 84.887283
1122.000000, 84.904869
1123.000000, 84.989365
1124.000000, 85.056061
1125.000000, 85.291740
1126.000000, 85.430489
1127.000000, 85.455963
1128.000000, 85.625549
1129.000000, 85.858299
1130.000000, 85.865196
1131.000000, 86.084869
1132.000000, 86.074928
1133.000000, 86.183739
1134.000000, 86.274376
1135.000000, 86.355751
1136.000000, 86.411789
1137.000000, 86.439781
1138.000000, 86.544205
1139.000000, 86.522667
1140.000000, 86.524307
1141.000000, 86.552071
1142.000000, 86.633858
1143.000000, 86.638054
1144.000000, 86.547699
1145.000000, 86.483849
1146.000000, 86.493423
1147.000000, 86.288567
1148.000000, 86.130203
1149.000000, 86.131882
1150.000000, 85.875458
1151.000000, 85.877953
1152.000000, 85.663651
1153.000000, 85.484711
1154.000000, 85.414375
1155.000000, 85.239113
1156.000000, 85.088142
1157.000000, 85.010826
1158.000000, 84.737740
1159.000000, 84.675232
1160.000000, 84.414955
1161.000000, 84.397888
1162.000000, 84.272110
1163.000000, 84.222130
1164.000000, 84.058350
1165.000000, 83.929131
1166.000000, 83.998543
1167.000000, 83.965057
1168.000000, 83.837166
1169.000000, 83.724396
1170.000000, 83.790298
1171.000000, 83.854332
1172.000000, 83.831184
1173.000000, 83.891113
1174.000000, 83.914902
1175.000000, 83.964088
1176.000000, 84.023575
1177.000000, 84.102867
1178.000000, 84.165207
1179.000000, 84.240799
1180.000000, 84.314034
1181.000000, 84.505150
1182.000000, 84.462288
1183.000000, 84.539505
1184.000000, 84.652519
1185.000000, 84.604027
1186.000000, 84.773102
1187.000000, 84.821541
1188.000000, 84.810394
1189.000000, 84.874657
1190.000000, 84.940369
1191.000000, 85.000061
1192.000000, 85.178223
1193.000000, 85.239151
1194.000000, 85.246117
1195.000000, 85.350723
1196.000000, 85.376656
1197.000000, 85.375214
1198.000000, 85.451042
1199.000000, 85.488113
1200.000000, 85.490440
1201.000000, 85.489326
1202.000000, 85.463776
1203.000000, 85.443489
1204.000000, 85.455360
1205.000000, 85.361412
1206.000000, 85.392937
1207.000000, 85.271683
1208.000000, 85.297028
1209.000000, 85.168282
1210.000000, 85.071770
1211.000000, 85.100731
1212.000000, 85.031113
1213.000000, 85.045052
1214.000000, 84.924019
1215.000000, 84.872658
1216.000000, 84.859238
1217.000000, 84.723625
1218.000000, 84.718147
1219.000000, 84.724121
1220.000000, 84.791794
1221.000000, 84.765991
1222.000000, 84.834084
1223.000000, 84.697601
1224.000000, 84.759529
1225.000000, 84.833672
1226.000000, 84.850563
1227.000000, 84.914032
1228.000000, 84.968864
1229.000000, 85.004951
1230.000000, 85.126015
1231.000000, 85.189949
1232.000000, 85.245201
1233.000000, 85.232155
1234.000000, 85.354973
1235.000000, 85.438309
1236.000000, 85.604492
1237.000000, 85.687706
1238.000000, 85.794182
1239.000000, 85.925194
1240.000000, 85.985146
1241.000000, 86.159424
1242.000000, 86.216125
1243.000000, 86.349617
1244.000000, 86.295517
1245.000000, 86.458740
1246.000000, 86.594826
1247.000000, 86.676964
1248.000000, 86.768387
1249.000000, 86.847725
1250.000000, 86.806679
1251.000000, 86.970016
1252.000000, 86.899101
1253.000000, 87.051025
1254.000000, 87.176216
1255.000000, 87.052986
1256.000000, 87.122520
1257.000000, 87.239220
1258.000000, 87.181976
1259.000000, 87.073875
1260.000000, 87.208817
1261.000000, 87.050758
1262.000000, 87.137123
1263.000000, 86.952499
1264.000000, 86.956039
1265.000000, 86.982788
1266.000000, 86.897964
1267.000000, 86.826538
1268.000000, 86.779198
1269.000000, 86.666618
1270.000000, 86.665695
1271.000000, 86.634491
1272.000000, 86.575089
1273.000000, 86.485199
1274.000000, 86.455086
1275.000000, 86.318794
1276.000000, 86.226196
1277.000000, 86.254814
1278.000000, 86.205391
1279.000000, 86.183624
1280.000000, 86.104797
1281.000000, 85.990868
1282.000000, 86.072746
1283.000000, 86.034760
1284.000000, 85.996468
1285.000000, 85.986862
1286.000000, 85.879845
1287.000000, 86.023361
1288.000000, 85.930214
1289.000000, 85.980515
1290.000000, 85.956299
1291.000000, 85.945587
1292.000000, 85.913399
1293.000000, 86.113808
1294.000000, 86.055740
1295.000000, 86.110069
1296.000000, 86.125092
1297.000000, 86.265930
1298.000000, 86.195633
1299.000000, 86.355087
1300.000000, 86.383575
1301.000000, 86.390305
1302.000000, 86.617325
1303.000000, 86.519936
1304.000000, 86.677101
1305.000000, 86.771965
1306.000000, 86.784294
1307.000000, 86.919609
1308.000000, 86.889183
1309.000000, 86.988312
1310.000000, 87.106613
1311.000000, 87.210052
1312.000000, 87.268959
1313.000000, 87.294212
1314.000000, 87.446251
1315.000000, 87.413704
1316.000000, 87.552040
1317.000000, 87.572441
1318.000000, 87.685448
1319.000000, 87.618652
1320.000000, 87.755768
1321.000000, 87.748291
1322.000000, 87.730225
1323.000000, 87.726883
1324.000000, 87.760864
1325.000000, 87.856262
1326.000000, 87.814613
1327.000000, 87.811317
1328.000000, 87.839172
1329.000000, 87.875237
1330.000000, 87.850899
1331.000000, 87.774246
1332.000000, 87.701096
1333.000000, 87.758064
1334.000000, 87.673668
1335.000000, 87.677589
1336.000000, 87.645149
1337.000000, 87.452385
1338.000000, 87.495567
1339.000000, 87.301620
1340.000000, 87.307968
1341.000000, 87.254303
1342.000000, 87.108681
1343.000000, 87.096611
1344.000000, 87.003342
1345.000000, 86.931274
1346.000000, 86.870834
1347.000000, 86.831581
1348.000000, 86.586357
1349.000000, 86.565758
1350.000000, 86.447861
1351.000000, 86.396233
1352.000000, 86.263840
1353.000000, 86.143478
1354.000000, 86.117958
1355.000000, 85.911217
1356.000000, 85.912254
1357.000000, 85.837715
1358.000000, 85.610229
1359.000000, 85.680183
1360.000000, 85.693474
1361.000000, 85.474220
1362.000000, 85.492554
1363.000000, 85.614304
1364.000000, 85.436951
1365.000000, 85.446457
1366.000000, 85.406967
1367.000000, 85.348160
1368.000000, 85.330276
1369.000000, 85.296425
1370.000000, 85.382065
1371.000000, 85.223198
1372.000000, 85.187233
1373.000000, 85.197586
1374.000000, 85.243294
1375.000000, 85.242256
1376.000000, 85.165497
1377.000000, 85.203674
1378.000000, 85.293953
1379.000000, 85.280922
1380.000000, 85.346786
1381.000000, 85.303947
1382.000000, 85.485596
1383.000000, 85.382446
1384.000000, 85.483337
1385.000000, 85.611679
1386.000000, 85.554749
1387.000000, 85.645081
1388.000000, 85.589500
1389.000000, 85.586426
1390.000000, 85.622307
1391.000000, 85.731995
1392.000000, 85.653595
1393.000000, 85.699364
1394.000000, 85.747292
1395.000000, 85.852066
1396.000000, 85.812225
1397.000000, 85.766991
1398.000000, 85.831955
1399.000000, 85.966064
1400.000000, 85.992004
1401.000000, 85.925522
1402.000000, 85.887543
1403.000000, 85.897682
1404.000000, 85.869270
1405.000000, 85.819443
1406.000000, 85.894691
1407.000000, 85.720268
1408.000000, 85.679001
1409.000000, 85.584007
1410.000000, 85.369164
1411.000000, 85.322372
1412.000000, 85.185501
1413.000000, 85.048843
1414.000000, 84.873680
1415.000000, 84.647240
1416.000000, 84.623322
1417.000000, 84.248489
1418.000000, 84.161209
1419.000000, 83.823631
1420.000000, 83.712448
1421.000000, 83.421310
1422.000000, 83.178604
1423.000000, 82.912766
1424.000000, 82.757607
1425.000000, 82.532333
1426.000000, 82.342987
1427.000000, 82.119164
1428.000000, 82.017937
1429.000000, 81.896271
1430.000000, 81.835899
1431.000000, 81.786072
1432.000000, 81.719765
1433.000000, 81.763039
1434.000000, 81.691658
1435.000000, 81.649872
1436.000000, 81.772820
1437.000000, 81.769905
1438.000000, 81.799187
1439.000000, 81.795792
1440.000000, 81.805328
1441.000000, 81.826683
1442.000000, 81.940720
1443.000000, 81.981766
1444.000000, 81.959145
1445.000000, 82.056465
1446.000000, 81.979248
1447.000000, 82.142677
1448.000000, 82.037910
1449.000000, 82.091202
1450.000000, 82.201065
1451.000000, 82.122070
1452.000000, 82.162323
1453.000000, 82.246666
1454.000000, 82.392944
1455.000000, 82.372246
1456.000000, 82.505455
1457.000000, 82.516701
1458.000000, 82.512894
1459.000000, 82.594910
1460.000000, 82.652260
1461.000000, 82.674393
1462.000000, 82.748344
1463.000000, 82.864670
1464.000000, 82.958504
1465.000000, 82.915291
1466.000000, 83.047829
1467.000000, 83.140358
1468.000000, 83.252007
1469.000000, 83.240837
1470.000000, 83.263016
1471.000000, 83.326630
1472.000000, 83.504799
1473.000000, 83.490685
1474.000000, 83.607338
1475.000000, 83.735138
1476.000000, 83.727501
1477.000000, 83.885666
1478.000000, 83.861542
1479.000000, 83.930893
1480.000000, 83.957733
1481.000000, 84.083847
1482.000000, 84.311928
1483.000000, 84.138130
1484.000000, 84.381248
1485.000000, 84.346703
1486.000000, 84.393013
1487.000000, 84.442009
1488.000000, 84.526527
1489.000000, 84.571350
1490.000000, 84.605637
1491.000000, 84.542541
1492.000000, 84.697212
1493.000000, 84.689484
1494.000000, 84.807785
1495.000000, 84.872078
1496.000000, 84.827194
1497.000000, 84.831413
1498.000000, 84.797127
1499.000000, 84.978767
1500.000000, 84.865738
1501.000000, 84.926109
1502.000000, 84.946762
1503.000000, 84.977005
1504.000000, 84.810280
1505.000000, 84.894142
1506.000000, 84.871338
1507.000000, 84.801598
1508.000000, 84.716461
1509.000000, 84.758011
1510.000000, 84.814323
1511.000000, 84.651009
1512.000000, 84.557884
1513.000000, 84.628082
1514.000000, 84.462479
1515.000000, 84.447151
1516.000000, 84.559540
1517.000000, 84.352821
1518.000000, 84.261902
1519.000000, 84.264107
1520.000000, 84.096741
1521.000000, 84.145416
1522.000000, 83.889114
1523.000000, 83.842918
1524.000000, 83.797821
1525.000000, 83.735878
1526.000000, 83.599075
1527.000000, 83.496590
1528.000000, 83.448311
1529.000000, 83.418449
1530.000000, 83.312004
1531.000000, 83.215149
1532.000000, 83.146027
1533.000000, 83.026085
1534.000000, 83.050774
1535.000000, 82.933250
1536.000000, 82.949844
1537.000000, 82.774239
1538.000000, 82.787651
1539.000000, 82.811478
1540.000000, 82.753021
1541.000000, 82.706726
1542.000000, 82.668167
1543.000000, 82.721519
1544.000000, 82.745407
1545.000000, 82.769814
1546.000000, 82.792381
1547.000000, 82.826012
1548.000000, 82.863907
1549.000000, 82.881157
1550.000000, 82.946175
1551.000000, 82.944977
1552.000000, 83.073517
1553.000000, 83.126854
1554.000000, 83.136459
1555.000000, 83.138878
1556.000000, 83.265045
1557.000000, 83.310501
1558.000000, 83.313057
1559.000000, 83.363052
1560.000000, 83.451614
1561.000000, 83.456291
1562.000000, 83.531364
1563.000000, 83.514420
1564.000000, 83.629295
1565.000000, 83.775696
1566.000000, 83.693672
1567.000000, 83.850067
1568.000000, 83.832459
1569.000000, 83.946701
1570.000000, 84.105041
1571.000000, 84.068558
1572.000000, 84.112839
1573.000000, 84.207603
1574.000000, 84.397141
1575.000000, 84.399261
1576.000000, 84.358498
1577.000000, 84.584938
1578.000000, 84.629463
1579.000000, 84.649696
1580.000000, 84.665070
1581.000000, 84.837944
1582.000000, 84.962234
1583.000000, 84.875710
1584.000000, 84.992615
1585.000000, 85.163673
1586.000000, 85.119812
1587.000000, 85.286018
1588.000000, 85.357735
1589.000000, 85.490776
1590.000000, 85.437027
1591.000000, 85.597252
1592.000000, 85.559448
1593.000000, 85.753563
1594.000000, 85.857620
1595.000000, 85.860588
1596.000000, 85.860268
1597.000000, 86.056374
1598.000000, 85.971123
1599.000000, 86.010239
1600.000000, 86.035324
1601.000000, 86.119720
1602.000000, 86.291466
1603.000000, 86.152527
1604.000000, 86.240982
1605.000000, 86.118301
1606.000000, 86.254555
1607.000000, 86.240639
1608.000000, 86.381859
1609.000000, 86.340805
1610.000000, 86.269333
1611.000000, 86.283104
1612.000000, 86.277321
1613.000000, 86.364487
1614.000000, 86.176651
1615.000000, 86.136566
1616.000000, 86.151619
1617.000000, 86.038094
1618.000000, 86.050644
1619.000000, 86.017471
1620.000000, 85.986671
1621.000000, 85.886444
1622.000000, 85.790474
1623.000000, 85.857437
1624.000000, 85.824577
1625.000000, 85.722794
1626.000000, 85.546127
1627.000000, 85.690300
1628.000000, 85.434097
1629.000000, 85.471451
1630.000000, 85.187973
1631.000000, 85.260170
1632.000000, 84.861397
1633.000000, 84.819969
1634.000000, 84.718353
1635.000000, 84.720329
1636.000000, 84.626129
1637.000000, 84.394615
1638.000000, 84.443687
1639.000000, 84.258560
1640.000000, 84.168488
1641.000000, 83.903595
1642.000000, 83.874947
1643.000000, 83.568886
1644.000000, 83.352493
1645.000000, 83.074020
1646.000000, 82.986015
1647.000000, 82.690300
1648.000000, 82.554787
1649.000000, 82.488235
1650.000000, 82.327644
1651.000000, 82.260902
1652.000000, 82.094437
1653.000000, 81.988647
1654.000000, 81.839722
1655.000000, 81.658157
1656.000000, 81.431396
1657.000000, 81.083191
1658.000000, 80.726807
1659.000000, 80.459412
1660.000000, 80.055435
1661.000000, 79.628220
1662.000000, 79.199799
1663.000000, 78.577980
1664.000000, 78.008827
1665.000000, 77.403831
1666.000000, 76.776497
1667.000000, 76.298782
1668.000000, 75.912025
1669.000000, 75.768204
1670.000000, 75.701523
1671.000000, 75.528458
1672.000000, 75.772697
1673.000000, 75.933456
1674.000000, 76.144371
1675.000000, 76.464996
1676.000000, 76.658890
1677.000000, 76.923920
1678.000000, 77.162865
1679.000000, 77.229919
1680.000000, 77.209396
1681.000000, 77.187851
1682.000000, 76.993141
1683.000000, 76.765671
1684.000000, 76.380692
1685.000000, 76.122963
1686.000000, 75.750381
1687.000000, 75.592438
1688.000000, 75.338379
1689.000000, 75.276932
1690.000000, 75.285057
1691.000000, 75.289131
1692.000000, 75.241943
1693.000000, 75.370804
1694.000000, 75.277863
1695.000000, 75.191750
1696.000000, 75.078110
1697.000000, 74.916061
1698.000000, 74.586357
1699.000000, 74.555283
1700.000000, 74.515732
1701.000000, 74.427895
1702.000000, 74.694695
1703.000000, 74.798370
1704.000000, 74.939384
1705.000000, 75.158127
1706.000000, 75.297806
1707.000000, 75.461899
1708.000000, 75.730820
1709.000000, 75.693527
1710.000000, 75.865082
1711.000000, 76.028091
1712.000000, 75.984406
1713.000000, 76.151680
1714.000000, 76.116150
1715.000000, 76.079300
1716.000000, 76.051430
1717.000000, 76.003654
1718.000000, 75.889297
1719.000000, 75.937645
1720.000000, 75.813385
1721.000000, 75.880692
1722.000000, 75.837379
1723.000000, 75.961090
1724.000000, 76.093048
1725.000000, 75.998184
1726.000000, 76.204475
1727.000000, 76.224434
1728.000000, 76.291222
1729.000000, 76.390091
1730.000000, 76.405388
1731.000000, 76.452347
1732.000000, 76.376877
1733.000000, 76.432709
1734.000000, 76.464195
1735.000000, 76.531631
1736.000000, 76.637642
1737.000000, 76.711494
1738.000000, 76.735619
1739.000000, 76.820465
1740.000000, 77.001190
1741.000000, 77.142609
1742.000000, 77.358810
1743.000000, 77.580620
1744.000000, 77.692986
1745.000000, 77.908585
1746.000000, 78.140938
1747.000000, 78.216644
1748.000000, 78.441834
1749.000000, 78.622192
1750.000000, 78.661415
1751.000000, 78.714851
1752.000000, 78.879227
1753.000000, 78.935333
1754.000000, 79.098152
1755.000000, 79.148361
1756.000000, 79.170494
1757.000000, 79.174599
1758.000000, 79.158577
1759.000000, 79.189827
1760.000000, 79.103722
1761.000000, 79.107170
1762.000000, 79.080482
1763.000000, 79.084625
1764.000000, 78.964989
1765.000000, 78.933556
1766.000000, 78.949265
1767.000000, 78.829018
1768.000000, 78.777939
1769.000000, 78.880630
1770.000000, 78.761993
1771.000000, 78.776749
1772.000000, 78.897377
1773.000000, 78.952942
1774.000000, 79.055580
1775.000000, 79.034058
1776.000000, 79.083351
1777.000000, 79.123329
1778.000000, 79.114761
1779.000000, 79.195618
1780.000000, 79.327705
1781.000000, 79.353737
1782.000000, 79.324982
1783.000000, 79.385063
1784.000000, 79.404724
1785.000000, 79.294220
1786.000000, 79.351151
1787.000000, 79.265984
1788.000000, 79.341873
1789.000000, 79.369926
1790.000000, 79.198479
1791.000000, 79.228165
1792.000000, 79.216980
1793.000000, 79.156479
1794.000000, 79.191246
1795.000000, 79.155769
1796.000000, 79.213753
1797.000000, 79.117340
1798.000000, 78.956535
1799.000000, 78.989922
1800.000000, 78.983635
1801.000000, 78.923470
1802.000000, 78.945045
1803.000000, 78.930763
1804.000000, 78.919891
1805.000000, 78.862778
1806.000000, 78.734833
1807.000000, 78.729462
1808.000000, 78.937439
1809.000000, 78.854073
1810.000000, 78.797981
1811.000000, 78.787735
1812.000000, 78.721169
1813.000000, 78.772690
1814.000000, 78.754868
1815.000000, 78.722557
1816.000000, 78.737320
1817.000000, 78.701645
1818.000000, 78.711502
1819.000000, 78.770599
1820.000000, 78.775406
1821.000000, 78.739998
1822.000000, 78.735718
1823.000000, 78.809822
1824.000000, 78.886757
1825.000000, 78.780785
1826.000000, 78.815109
1827.000000, 78.836945
1828.000000, 78.873505
1829.000000, 78.928612
1830.000000, 78.999870
1831.000000, 78.854218
1832.000000, 79.051674
1833.000000, 79.086319
1834.000000, 79.175697
1835.000000, 79.280190
1836.000000, 79.303207
1837.000000, 79.337242
1838.000000, 79.377838
1839.000000, 79.432457
1840.000000, 79.532089
1841.000000, 79.601578
1842.000000, 79.474556
1843.000000, 79.634056
1844.000000, 79.731110
1845.000000, 79.824364
1846.000000, 79.879059
1847.000000, 79.863808
1848.000000, 80.036285
1849.000000, 80.029320
1850.000000, 80.109024
1851.000000, 80.141930
1852.000000, 80.309685
1853.000000, 80.390091
1854.000000, 80.399635
1855.000000, 80.461220
1856.000000, 80.628593
1857.000000, 80.641922
1858.000000, 80.695343
1859.000000, 80.767326
1860.000000, 80.759354
1861.000000, 80.849037
1862.000000, 80.946625
1863.000000, 81.085876
1864.000000, 81.029266
1865.000000, 81.226608
1866.000000, 81.177849
1867.000000, 81.220825
1868.000000, 81.190422
1869.000000, 81.201179
1870.000000, 81.394249
1871.000000, 81.329399
1872.000000, 81.428703
1873.000000, 81.549973
1874.000000, 81.623344
1875.000000, 81.675545
1876.000000, 81.600540
1877.000000, 81.670052
1878.000000, 81.781006
1879.000000, 81.776230
1880.000000, 81.874756
1881.000000, 81.825699
1882.000000, 81.888176
1883.000000, 81.844986
1884.000000, 81.864098
1885.000000, 81.874779
1886.000000, 81.897354
1887.000000, 81.856567
1888.000000, 82.008820
1889.000000, 82.043282
1890.000000, 81.963501
1891.000000, 81.990021
1892.000000, 81.942947
1893.000000, 81.927910
1894.000000, 81.918053
1895.000000, 81.847603
1896.000000, 81.757668
1897.000000, 81.811951
1898.000000, 81.727531
1899.000000, 81.786644
1900.000000, 81.678421
1901.000000, 81.614098
1902.000000, 81.617912
1903.000000, 81.624733
1904.000000, 81.532394
1905.000000, 81.537636
1906.000000, 81.480186
1907.000000, 81.488251
1908.000000, 81.504173
1909.000000, 81.471184
1910.000000, 81.496964
1911.000000, 81.407051
1912.000000, 81.415161
1913.000000, 81.342331
1914.000000, 81.365547
1915.000000, 81.399033
1916.000000, 81.240150
1917.000000, 81.296150
1918.000000, 81.273575
1919.000000, 81.294769
1920.000000, 81.179138
1921.000000, 81.089317
1922.000000, 81.182808
1923.000000, 81.099556
1924.000000, 81.109451
1925.000000, 81.107773
1926.000000, 80.992783
1927.000000, 80.966682
1928.000000, 80.903244
1929.000000, 80.850342
1930.000000, 80.762901
1931.000000, 80.811768
1932.000000, 80.834854
1933.000000, 80.765060
1934.000000, 80.736771
1935.000000, 80.729088
1936.000000, 80.663124
1937.000000, 80.660576
1938.000000, 80.570168
1939.000000, 80.534554
1940.000000, 80.551758
1941.000000, 80.460747
1942.000000, 80.584999
1943.000000, 80.413269
1944.000000, 80.399437
1945.000000, 80.349098
1946.000000, 80.392670
1947.000000, 80.347008
1948.000000, 80.298386
1949.000000, 80.343102
1950.000000, 80.308121
1951.000000, 80.214439
1952.000000, 80.194969
1953.000000, 80.197289
1954.000000, 80.173836
1955.000000, 80.146591
1956.000000, 80.092064
1957.000000, 80.088181
1958.000000, 80.078522
1959.000000, 79.994881
1960.000000, 79.898003
1961.000000, 79.887596
1962.000000, 79.913849
1963.000000, 79.806679
1964.000000, 79.721146
1965.000000, 79.747154
1966.000000, 79.680809
1967.000000, 79.683563
1968.000000, 79.625305
1969.000000, 79.569138
1970.000000, 79.610161
1971.000000, 79.586662
1972.000000, 79.560814
1973.000000, 79.405502
1974.000000, 79.442688
1975.000000, 79.392639
1976.000000, 79.454575
1977.000000, 79.255798
1978.000000, 79.421410
1979.000000, 79.319038
1980.000000, 79.285439
1981.000000, 79.393425
1982.000000, 79.142395
1983.000000, 79.149902
1984.000000, 79.186699
1985.000000, 79.145309
1986.000000, 79.010170
1987.000000, 79.017426
1988.000000, 78.925743
1989.000000, 78.976112
1990.000000, 78.872566
1991.000000, 78.826622
1992.000000, 78.716812
1993.000000, 78.703918
1994.000000, 78.649864
1995.000000, 78.555664
1996.000000, 78.482574
1997.000000, 78.398636
1998.000000, 78.432419
1999.000000, 78.323837
2000.000000, 78.255341
2001.000000, 78.127541
2002.000000, 78.041069
2003.000000, 77.962372
2004.000000, 77.968262
2005.000000, 77.846115
2006.000000, 77.776840
2007.000000, 77.757629
2008.000000, 77.546272
2009.000000, 77.470337
2010.000000, 77.449890
2011.000000, 77.327057
2012.000000, 77.230705
2013.000000, 77.129890
2014.000000, 77.086044
2015.000000, 76.971970
2016.000000, 76.913681
2017.000000, 76.756248
2018.000000, 76.723160
2019.000000, 76.621727
2020.000000, 76.525459
2021.000000, 76.386108
2022.000000, 76.378616
2023.000000, 76.067734
2024.000000, 76.154015
2025.000000, 76.011223
2026.000000, 75.947083
2027.000000, 75.850960
2028.000000, 75.576614
2029.000000, 75.577881
2030.000000, 75.423325
2031.000000, 75.295448
2032.000000, 75.123390
2033.000000, 75.067482
2034.000000, 74.956726
2035.000000, 74.879143
2036.000000, 74.636070
2037.000000, 74.474350
2038.000000, 74.352165
2039.000000, 74.235573
2040.000000, 73.997902
2041.000000, 74.001831
2042.000000, 73.819427
2043.000000, 73.708069
2044.000000, 73.572731
2045.000000, 73.412727
2046.000000, 73.345985
2047.000000, 73.288940
2048.000000, 73.076866
2049.000000, 72.921127
2050.000000, 72.808876
2051.000000, 72.667572
2052.000000, 72.598282
2053.000000, 72.379379
2054.000000, 72.328644
2055.000000, 72.165833
2056.000000, 72.150749
2057.000000, 71.921333
2058.000000, 71.912163
2059.000000, 71.682220
2060.000000, 71.700607
2061.000000, 71.375481
2062.000000, 71.357109
2063.000000, 71.134972
2064.000000, 70.995461
2065.000000, 70.971954
2066.000000, 70.789749
2067.000000, 70.667023
2068.000000, 70.526367
2069.000000, 70.443291
2070.000000, 70.239403
2071.000000, 70.166687
2072.000000, 69.987526
2073.000000, 69.919846
2074.000000, 69.760750
2075.000000, 69.683769
2076.000000, 69.568985
2077.000000, 69.505951
2078.000000, 69.347054
2079.000000, 69.282516
2080.000000, 69.182014
2081.000000, 69.078468
2082.000000, 69.044197
2083.000000, 68.951645
2084.000000, 68.857285
2085.000000, 68.764252
2086.000000, 68.724945
2087.000000, 68.662979
2088.000000, 68.662437
2089.000000, 68.591743
2090.000000, 68.464905
2091.000000, 68.569847
2092.000000, 68.429825
2093.000000, 68.435112
2094.000000, 68.414383
2095.000000, 68.396019
2096.000000, 68.323639
2097.000000, 68.391403
2098.000000, 68.333717
2099.000000, 68.291466
2100.000000, 68.261749
2101.000000, 68.244072
2102.000000, 68.273483
2103.000000, 68.279366
2104.000000, 68.229836
2105.000000, 68.114906
2106.000000, 68.113686
2107.000000, 68.104645
2108.000000, 68.141060
2109.000000, 68.089416
2110.000000, 68.038765
2111.000000, 67.945564
2112.000000, 67.986885
2113.000000, 67.873047
2114.000000, 67.834595
2115.000000, 67.712715
2116.000000, 67.707100
2117.000000, 67.570839
2118.000000, 67.486610
2119.000000, 67.370163
2120.000000, 67.343620
2121.000000, 67.261223
2122.000000, 67.168266
2123.000000, 67.006500
2124.000000, 66.762367
2125.000000, 66.658234
2126.000000, 66.480324
2127.000000, 66.112114
2128.000000, 65.799507
2129.000000, 65.377350
2130.000000, 64.921692
2131.000000, 64.354012
2132.000000, 64.008881
2133.000000, 63.570988
2134.000000, 63.247662
2135.000000, 62.973221
2136.000000, 62.996429
2137.000000, 62.902687
2138.000000, 63.117176
2139.000000, 63.410126
2140.000000, 63.673367
2141.000000, 64.062325
2142.000000, 64.363258
2143.000000, 64.621872
2144.000000, 64.933678
2145.000000, 65.206680
2146.000000, 65.351280
2147.000000, 65.457130
2148.000000, 65.445152
2149.000000, 65.413559
2150.000000, 65.289459
2151.000000, 65.092323
2152.000000, 64.860207
2153.000000, 64.442795
2154.000000, 64.096565
2155.000000, 63.575638
2156.000000, 63.132362
2157.000000, 62.653797
2158.000000, 62.076645
2159.000000, 61.605293
2160.000000, 61.209660
2161.000000, 60.827137
2162.000000, 60.693466
2163.000000, 60.646336
2164.000000, 60.776592
2165.000000, 60.984272
2166.000000, 61.436317
2167.000000, 61.958290
2168.000000, 62.538044
2169.000000, 63.191879
2170.000000, 63.831657
2171.000000, 64.520866
2172.000000, 65.038788
2173.000000, 65.455345
2174.000000, 65.873779
2175.000000, 66.079460
2176.000000, 66.374847
2177.000000, 66.564278
2178.000000, 66.575424
2179.000000, 66.642235
2180.000000, 66.571640
2181.000000, 66.536423
2182.000000, 66.496658
2183.000000, 66.370705
2184.000000, 66.288757
2185.000000, 66.063980
2186.000000, 65.973572
2187.000000, 65.833550
2188.000000, 65.762894
2189.000000, 65.777596
2190.000000, 65.759003
2191.000000, 65.751976
2192.000000, 65.737335
2193.000000, 65.762337
2194.000000, 65.833252
2195.000000, 65.935280
2196.000000, 65.964722
2197.000000, 65.992065
2198.000000, 66.000053
2199.000000, 66.026161
2200.000000, 65.975029
2201.000000, 65.903305
2202.000000, 65.882530
2203.000000, 65.765701
2204.000000, 65.710289
2205.000000, 65.575363
2206.000000, 65.635132
2207.000000, 65.579033
2208.000000, 65.504326
2209.000000, 65.435104
2210.000000, 65.449562
2211.000000, 65.478127
2212.000000, 65.454971
2213.000000, 65.543900
2214.000000, 65.478035
2215.000000, 65.544647
2216.000000, 65.658066
2217.000000, 65.652229
2218.000000, 65.668396
2219.000000, 65.660095
2220.000000, 65.593605
2221.000000, 65.638298
2222.000000, 65.595589
2223.000000, 65.389610
2224.000000, 65.216209
2225.000000, 65.172577
2226.000000, 65.009979
2227.000000, 64.723930
2228.000000, 64.583710
2229.000000, 64.380150
2230.000000, 64.103851
2231.000000, 64.064789
2232.000000, 63.900768
2233.000000, 63.640606
2234.000000, 63.525455
2235.000000, 63.335155
2236.000000, 63.223606
2237.000000, 63.048164
2238.000000, 62.760754
2239.000000, 62.623032
2240.000000, 62.421844
2241.000000, 62.046940
2242.000000, 61.824066
2243.000000, 61.541939
2244.000000, 61.095673
2245.000000, 60.634010
2246.000000, 60.225533
2247.000000, 59.714844
2248.000000, 59.243549
2249.000000, 58.656574
2250.000000, 58.115601
2251.000000, 57.500004
2252.000000, 56.821918
2253.000000, 56.114735
2254.000000, 55.428947
2255.000000, 54.740517
2256.000000, 54.010880
2257.000000, 53.276436
2258.000000, 52.480339
2259.000000, 51.785789
2260.000000, 50.974770
2261.000000, 50.192814
2262.000000, 49.474918
2263.000000, 48.678623
2264.000000, 47.868992
2265.000000, 47.097443
2266.000000, 46.373863
2267.000000, 45.663773
2268.000000, 44.913364
2269.000000, 44.183235
2270.000000, 43.515167
2271.000000, 42.915165
2272.000000, 42.404507
2273.000000, 41.838356
2274.000000, 41.512768
2275.000000, 41.133518
2276.000000, 40.819767
2277.000000, 40.538250
2278.000000, 40.236038
2279.000000, 40.042046
2280.000000, 39.742298
2281.000000, 39.464329
2282.000000, 39.188084
2283.000000, 38.905624
2284.000000, 38.558239
2285.000000, 38.201206
2286.000000, 37.874489
2287.000000, 37.470039
2288.000000, 37.104218
2289.000000, 36.807869
2290.000000, 36.443756
2291.000000, 36.107098
2292.000000, 35.820087
2293.000000, 35.521355
2294.000000, 35.207508
2295.000000, 34.895729
2296.000000, 34.633068
2297.000000, 34.366505
2298.000000, 34.158592
2299.000000, 33.930016
2300.000000, 33.808216
2301.000000, 33.584988
2302.000000, 33.442287
2303.000000, 33.368690
2304.000000, 33.265812
2305.000000, 33.171688
2306.000000, 33.058472
2307.000000, 32.988171
2308.000000, 32.862919
2309.000000, 32.742729
2310.000000, 32.622078
2311.000000, 32.506084
2312.000000, 32.449780
2313.000000, 32.456753
2314.000000, 32.481144
2315.000000, 32.606678
2316.000000, 32.808800
2317.000000, 33.071663
2318.000000, 33.402599
2319.000000, 33.850143
2320.000000, 34.381809
2321.000000, 34.913445
2322.000000, 35.410404
2323.000000, 35.891651
2324.000000, 36.439587
2325.000000, 36.855335
2326.000000, 37.302784
2327.000000, 37.687233
2328.000000, 38.099022
2329.000000, 38.440926
2330.000000, 38.707584
2331.000000, 39.063988
2332.000000, 39.310513
2333.000000, 39.559299
2334.000000, 39.857780
2335.000000, 40.030544
2336.000000, 40.193222
2337.000000, 40.382397
2338.000000, 40.483128
2339.000000, 40.640076
2340.000000, 40.691246
2341.000000, 40.726711
2342.000000, 40.690605
2343.000000, 40.714397
2344.000000, 40.609112
2345.000000, 40.634686
2346.000000, 40.560093
2347.000000, 40.463268
2348.000000, 40.395752
2349.000000, 40.372936
2350.000000, 40.334332
2351.000000, 40.391285
2352.000000, 40.410175
2353.000000, 40.401752
2354.000000, 40.509068
2355.000000, 40.584122
2356.000000, 40.544998
2357.000000, 40.613586
2358.000000, 40.614170
2359.000000, 40.572472
2360.000000, 40.566006
2361.000000, 40.583424
2362.000000, 40.454636
2363.000000, 40.427193
2364.000000, 40.456928
2365.000000, 40.387985
2366.000000, 40.467316
2367.000000, 40.456356
2368.000000, 40.523720
2369.000000, 40.603142
2370.000000, 40.655575
2371.000000, 40.681175
2372.000000, 40.766907
2373.000000, 40.828041
2374.000000, 40.893921
2375.000000, 40.979652
2376.000000, 41.028759
2377.000000, 41.028984
2378.000000, 41.066200
2379.000000, 41.036175
2380.000000, 41.006546
2381.000000, 40.971329
2382.000000, 40.923107
2383.000000, 40.837513
2384.000000, 40.760185
2385.000000, 40.637856
2386.000000, 40.481110
2387.000000, 40.463795
2388.000000, 40.354858
2389.000000, 40.220032
2390.000000, 40.142677
2391.000000, 40.066322
2392.000000, 39.906303
2393.000000, 39.867680
2394.000000, 39.747593
2395.000000, 39.618885
2396.000000, 39.546139
2397.000000, 39.460915
2398.000000, 39.303856
2399.000000, 39.277412
2400.000000, 39.268955
2401.000000, 39.196865
2402.000000, 39.241329
2403.000000, 39.353622
2404.000000, 39.421001
2405.000000, 39.573704
2406.000000, 39.804829
2407.000000, 40.000740
2408.000000, 40.220257
2409.000000, 40.495319
2410.000000, 40.722393
2411.000000, 40.955231
2412.000000, 41.231369
2413.000000, 41.390900
2414.000000, 41.567287
2415.000000, 41.734394
2416.000000, 41.890068
2417.000000, 42.001934
2418.000000, 42.091137
2419.000000, 42.144760
2420.000000, 42.172791
2421.000000, 42.242638
2422.000000, 42.239502
2423.000000, 42.267357
2424.000000, 42.229897
2425.000000, 42.181362
2426.000000, 42.103569
2427.000000, 42.096874
2428.000000, 42.024799
2429.000000, 41.914604
2430.000000, 41.771545
2431.000000, 41.699818
2432.000000, 41.506371
2433.000000, 41.328739
2434.000000, 41.191936
2435.000000, 40.922916
2436.000000, 40.643551
2437.000000, 40.402813
2438.000000, 40.044018
2439.000000, 39.693115
2440.000000, 39.297985
2441.000000, 38.910980
2442.000000, 38.333862
2443.000000, 37.859013
2444.000000, 37.318268
2445.000000, 36.794483
2446.000000, 36.199345
2447.000000, 35.679016
2448.000000, 35.094471
2449.000000, 34.573044
2450.000000, 33.996635
2451.000000, 33.459793
2452.000000, 32.961266
2453.000000, 32.454842
2454.000000, 31.984282
2455.000000, 31.537380
2456.000000, 31.110918
2457.000000, 30.721527
2458.000000, 30.399858
2459.000000, 30.100975
2460.000000, 29.954008
2461.000000, 29.805628
2462.000000, 29.801857
2463.000000, 29.838634
2464.000000, 29.950565
2465.000000, 30.180391
2466.000000, 30.456388
2467.000000, 30.761354
2468.000000, 31.111109
2469.000000, 31.545675
2470.000000, 31.947241
2471.000000, 32.339485
2472.000000, 32.735531
2473.000000, 33.115273
2474.000000, 33.452885
2475.000000, 33.818375
2476.000000, 34.095131
2477.000000, 34.370758
2478.000000, 34.639557
2479.000000, 34.844196
2480.000000, 34.985291
2481.000000, 35.084118
2482.000000, 35.160942
2483.000000, 35.219097
2484.000000, 35.205345
2485.000000, 35.202427
2486.000000, 35.154663
2487.000000, 35.099991
2488.000000, 35.052734
2489.000000, 34.947021
2490.000000, 34.887936
2491.000000, 34.866249
2492.000000, 34.812778
2493.000000, 34.707211
2494.000000, 34.615337
2495.000000, 34.553509
2496.000000, 34.476517
2497.000000, 34.364285
2498.000000, 34.306629
2499.000000, 34.288525
2500.000000, 34.122417
2501.000000, 34.041431
2502.000000, 33.958920
2503.000000, 33.866276
2504.000000, 33.736168
2505.000000, 33.682621
2506.000000, 33.599060
2507.000000, 33.527229
2508.000000, 33.498959
2509.000000, 33.521172
2510.000000, 33.463211
2511.000000, 33.532463
2512.000000, 33.585880
2513.000000, 33.627613
2514.000000, 33.708298
2515.000000, 33.869106
2516.000000, 33.973778
2517.000000, 34.133812
2518.000000, 34.334976
2519.000000, 34.557201
2520.000000, 34.766575
2521.000000, 35.003674
2522.000000, 35.247334
2523.000000, 35.492149
2524.000000, 35.736431
2525.000000, 35.978298
2526.000000, 36.284740
2527.000000, 36.511463
2528.000000, 36.753998
2529.000000, 37.007923
2530.000000, 37.274048
2531.000000, 37.485474
2532.000000, 37.807117
2533.000000, 37.945847
2534.000000, 38.170303
2535.000000, 38.337051
2536.000000, 38.581852
2537.000000, 38.695450
2538.000000, 38.891716
2539.000000, 39.037445
2540.000000, 39.165096
2541.000000, 39.235126
2542.000000, 39.386311
2543.000000, 39.422329
2544.000000, 39.525513
2545.000000, 39.556004
2546.000000, 39.661915
2547.000000, 39.703758
2548.000000, 39.761803
2549.000000, 39.760883
2550.000000, 39.775906
2551.000000, 39.798512
2552.000000, 39.848114
2553.000000, 39.863171
2554.000000, 39.944485
2555.000000, 39.970058
2556.000000, 40.031727
2557.000000, 40.110825
2558.000000, 40.161629
2559.000000, 40.225700
2560.000000, 40.244682
2561.000000, 40.312027
2562.000000, 40.409512
2563.000000, 40.405254
2564.000000, 40.515507
2565.000000, 40.575554
2566.000000, 40.679562
2567.000000, 40.711887
2568.000000, 40.854988
2569.000000, 40.859272
2570.000000, 40.930393
2571.000000, 40.978699
2572.000000, 41.046696
2573.000000, 41.083302
2574.000000, 41.108494
2575.000000, 41.196651
2576.000000, 41.246651
2577.000000, 41.291557
2578.000000, 41.383205
2579.000000, 41.511353
2580.000000, 41.668762
2581.000000, 41.777035
2582.000000, 41.956554
2583.000000, 42.164360
2584.000000, 42.343204
2585.000000, 42.514725
2586.000000, 42.748306
2587.000000, 42.998592
2588.000000, 43.168808
2589.000000, 43.371834
2590.000000, 43.622772
2591.000000, 43.829884
2592.000000, 44.011211
2593.000000, 44.306541
2594.000000, 44.420250
2595.000000, 44.646301
2596.000000, 44.797470
2597.000000, 44.946213
2598.000000, 45.111355
2599.000000, 45.255451
2600.000000, 45.352211
