# Wavelength  (nm), Transmission (%)
200.000000, 0.005479
201.000000, 0.005389
202.000000, 0.005262
203.000000, 0.005057
204.000000, 0.004983
205.000000, 0.004805
206.000000, 0.004678
207.000000, 0.004558
208.000000, 0.004389
209.000000, 0.004253
210.000000, 0.004182
211.000000, 0.004023
212.000000, 0.003909
213.000000, 0.003867
214.000000, 0.003781
215.000000, 0.003708
216.000000, 0.003670
217.000000, 0.003629
218.000000, 0.003603
219.000000, 0.003585
220.000000, 0.003605
221.000000, 0.003590
222.000000, 0.003557
223.000000, 0.003603
224.000000, 0.003632
225.000000, 0.003670
226.000000, 0.003685
227.000000, 0.003688
228.000000, 0.003701
229.000000, 0.003706
230.000000, 0.003721
231.000000, 0.003729
232.000000, 0.003723
233.000000, 0.003718
234.000000, 0.003700
235.000000, 0.003670
236.000000, 0.003643
237.000000, 0.003612
238.000000, 0.003579
239.000000, 0.003535
240.000000, 0.003494
241.000000, 0.003467
242.000000, 0.003462
243.000000, 0.003414
244.000000, 0.003347
245.000000, 0.003336
246.000000, 0.003307
247.000000, 0.003284
248.000000, 0.003209
249.000000, 0.003202
250.000000, 0.003158
251.000000, 0.003121
252.000000, 0.003093
253.000000, 0.003062
254.000000, 0.003058
255.000000, 0.003009
256.000000, 0.003000
257.000000, 0.002936
258.000000, 0.002896
259.000000, 0.002864
260.000000, 0.002859
261.000000, 0.002791
262.000000, 0.002749
263.000000, 0.002771
264.000000, 0.002715
265.000000, 0.002689
266.000000, 0.002665
267.000000, 0.002675
268.000000, 0.002609
269.000000, 0.002609
270.000000, 0.002614
271.000000, 0.002561
272.000000, 0.002571
273.000000, 0.002551
274.000000, 0.002546
275.000000, 0.002540
276.000000, 0.002537
277.000000, 0.002470
278.000000, 0.002459
279.000000, 0.002461
280.000000, 0.002462
281.000000, 0.002435
282.000000, 0.002436
283.000000, 0.002404
284.000000, 0.002367
285.000000, 0.002400
286.000000, 0.002330
287.000000, 0.002322
288.000000, 0.002250
289.000000, 0.002242
290.000000, 0.002221
291.000000, 0.002182
292.000000, 0.002104
293.000000, 0.002004
294.000000, 0.002018
295.000000, 0.001914
296.000000, 0.001856
297.000000, 0.001766
298.000000, 0.001701
299.000000, 0.001620
300.000000, 0.001507
301.000000, 0.001435
302.000000, 0.001357
303.000000, 0.001312
304.000000, 0.001170
305.000000, 0.001152
306.000000, 0.001051
307.000000, 0.000963
308.000000, 0.000892
309.000000, 0.000861
310.000000, 0.000786
311.000000, 0.000723
312.000000, 0.000637
313.000000, 0.000581
314.000000, 0.000559
315.000000, 0.000509
316.000000, 0.000449
317.000000, 0.000446
318.000000, 0.000389
319.000000, 0.000346
320.000000, 0.000329
321.000000, 0.000283
322.000000, 0.000254
323.000000, 0.000226
324.000000, 0.000227
325.000000, 0.000217
326.000000, 0.000211
327.000000, 0.000179
328.000000, 0.000177
329.000000, 0.000146
330.000000, 0.000126
331.000000, 0.000139
332.000000, 0.000162
333.000000, 0.000125
334.000000, 0.000118
335.000000, 0.000112
336.000000, 0.000106
337.000000, 0.000107
338.000000, 0.000109
339.000000, 0.000102
340.000000, 0.000105
341.000000, 0.000093
342.000000, 0.000088
343.000000, 0.000097
344.000000, 0.000100
345.000000, 0.000088
346.000000, 0.000111
347.000000, 0.000095
348.000000, 0.000097
349.000000, -0.000036
350.000000, 0.000100
351.000000, 0.000130
352.000000, 0.000121
353.000000, 0.000113
354.000000, 0.000119
355.000000, 0.000103
356.000000, 0.000133
357.000000, 0.000117
358.000000, 0.000116
359.000000, 0.000131
360.000000, 0.000129
361.000000, 0.000148
362.000000, 0.000195
363.000000, 0.000215
364.000000, 0.000284
365.000000, 0.000386
366.000000, 0.000560
367.000000, 0.000842
368.000000, 0.001444
369.000000, 0.002693
370.000000, 0.005363
371.000000, 0.011104
372.000000, 0.022610
373.000000, 0.044593
374.000000, 0.085559
375.000000, 0.161073
376.000000, 0.288903
377.000000, 0.481721
378.000000, 0.754908
379.000000, 1.175544
380.000000, 1.810537
381.000000, 2.622453
382.000000, 3.450208
383.000000, 4.303540
384.000000, 5.563673
385.000000, 7.731667
386.000000, 10.854288
387.000000, 14.393744
388.000000, 17.434359
389.000000, 19.722866
390.000000, 21.438631
391.000000, 22.535522
392.000000, 23.262159
393.000000, 24.636559
394.000000, 27.860191
395.000000, 33.110836
396.000000, 38.373596
397.000000, 40.741539
398.000000, 39.714344
399.000000, 38.170826
400.000000, 39.183193
401.000000, 43.788044
402.000000, 50.120060
403.000000, 54.413628
404.000000, 54.212292
405.000000, 51.124168
406.000000, 49.050556
407.000000, 50.292439
408.000000, 54.654682
409.000000, 59.705555
410.000000, 62.555885
411.000000, 61.893803
412.000000, 59.683014
413.000000, 58.790745
414.000000, 60.865952
415.000000, 65.382660
416.000000, 70.062691
417.000000, 71.632317
418.000000, 69.021515
419.000000, 64.264503
420.000000, 60.347321
421.000000, 59.215443
422.000000, 61.440487
423.000000, 66.167366
424.000000, 71.578606
425.000000, 75.379189
426.000000, 76.128784
427.000000, 74.412178
428.000000, 72.250816
429.000000, 71.320908
430.000000, 72.218658
431.000000, 74.376854
432.000000, 76.561646
433.000000, 77.408188
434.000000, 76.250443
435.000000, 73.469925
436.000000, 70.411865
437.000000, 68.098465
438.000000, 67.279579
439.000000, 67.962669
440.000000, 69.807510
441.000000, 72.162643
442.000000, 74.395683
443.000000, 75.911675
444.000000, 76.563988
445.000000, 76.641640
446.000000, 76.450241
447.000000, 76.403893
448.000000, 76.769058
449.000000, 77.501503
450.000000, 78.427414
451.000000, 79.225014
452.000000, 79.756721
453.000000, 79.776566
454.000000, 79.214638
455.000000, 78.230766
456.000000, 77.016029
457.000000, 75.890106
458.000000, 75.099297
459.000000, 74.871140
460.000000, 75.386505
461.000000, 76.602646
462.000000, 78.377411
463.000000, 80.343613
464.000000, 82.187904
465.000000, 83.389977
466.000000, 83.672714
467.000000, 82.998825
468.000000, 81.721046
469.000000, 80.287292
470.000000, 79.068855
471.000000, 78.457581
472.000000, 78.527626
473.000000, 79.162560
474.000000, 80.204544
475.000000, 81.318169
476.000000, 82.305077
477.000000, 82.936424
478.000000, 83.237915
479.000000, 83.291405
480.000000, 83.306816
481.000000, 83.471802
482.000000, 83.825127
483.000000, 84.276688
484.000000, 84.682587
485.000000, 84.847931
486.000000, 84.505379
487.000000, 83.678711
488.000000, 82.469124
489.000000, 81.195518
490.000000, 80.032761
491.000000, 79.357132
492.000000, 79.224945
493.000000, 79.649071
494.000000, 80.523300
495.000000, 81.741783
496.000000, 82.913002
497.000000, 83.817627
498.000000, 84.387436
499.000000, 84.582397
500.000000, 84.469193
501.000000, 84.255386
502.000000, 84.163048
503.000000, 84.278694
504.000000, 84.593582
505.000000, 85.142700
506.000000, 85.750595
507.000000, 86.250008
508.000000, 86.574379
509.000000, 86.660957
510.000000, 86.544121
511.000000, 86.311676
512.000000, 86.112282
513.000000, 85.993973
514.000000, 85.984543
515.000000, 86.096024
516.000000, 86.196899
517.000000, 86.248276
518.000000, 86.142754
519.000000, 85.918747
520.000000, 85.621262
521.000000, 85.384567
522.000000, 85.223961
523.000000, 85.298401
524.000000, 85.494202
525.000000, 85.788383
526.000000, 86.114693
527.000000, 86.296936
528.000000, 86.291069
529.000000, 86.148773
530.000000, 85.839455
531.000000, 85.548569
532.000000, 85.378555
533.000000, 85.343079
534.000000, 85.457916
535.000000, 85.575890
536.000000, 85.631783
537.000000, 85.606995
538.000000, 85.359970
539.000000, 85.058136
540.000000, 84.784874
541.000000, 84.598595
542.000000, 84.436272
543.000000, 84.199593
544.000000, 83.716362
545.000000, 83.028259
546.000000, 82.509628
547.000000, 81.661316
548.000000, 77.653488
549.000000, 65.632912
550.000000, 45.079968
551.000000, 24.420307
552.000000, 9.373827
553.000000, 4.271672
554.000000, 1.732914
555.000000, 0.739381
556.000000, 0.334806
557.000000, 0.159400
558.000000, 0.079556
559.000000, 0.042041
560.000000, 0.023244
561.000000, 0.013433
562.000000, 0.008126
563.000000, 0.005215
564.000000, 0.003530
565.000000, 0.002476
566.000000, 0.001846
567.000000, 0.001415
568.000000, 0.001140
569.000000, 0.000923
570.000000, 0.000770
571.000000, 0.000673
572.000000, 0.000574
573.000000, 0.000500
574.000000, 0.000462
575.000000, 0.000411
576.000000, 0.000363
577.000000, 0.000340
578.000000, 0.000306
579.000000, 0.000265
580.000000, 0.000253
581.000000, 0.000235
582.000000, 0.000222
583.000000, 0.000190
584.000000, 0.000189
585.000000, 0.000171
586.000000, 0.000155
587.000000, 0.000136
588.000000, 0.000141
589.000000, 0.000133
590.000000, 0.000110
591.000000, 0.000107
592.000000, 0.000105
593.000000, 0.000098
594.000000, 0.000091
595.000000, 0.000083
596.000000, 0.000078
597.000000, 0.000089
598.000000, 0.000064
599.000000, 0.000076
600.000000, 0.000059
601.000000, 0.000061
602.000000, 0.000063
603.000000, 0.000066
604.000000, 0.000055
605.000000, 0.000058
606.000000, 0.000054
607.000000, 0.000049
608.000000, 0.000055
609.000000, 0.000043
610.000000, 0.000046
611.000000, 0.000035
612.000000, 0.000038
613.000000, 0.000046
614.000000, 0.000034
615.000000, 0.000030
616.000000, 0.000039
617.000000, 0.000032
618.000000, 0.000039
619.000000, 0.000039
620.000000, 0.000036
621.000000, 0.000027
622.000000, 0.000032
623.000000, 0.000033
624.000000, 0.000030
625.000000, 0.000029
626.000000, 0.000025
627.000000, 0.000023
628.000000, 0.000025
629.000000, 0.000028
630.000000, 0.000023
631.000000, 0.000027
632.000000, 0.000025
633.000000, 0.000019
634.000000, 0.000020
635.000000, 0.000018
636.000000, 0.000021
637.000000, 0.000011
638.000000, 0.000014
639.000000, 0.000022
640.000000, 0.000017
641.000000, 0.000020
642.000000, 0.000013
643.000000, 0.000013
644.000000, 0.000011
645.000000, 0.000013
646.000000, 0.000016
647.000000, 0.000020
648.000000, 0.000012
649.000000, 0.000012
650.000000, 0.000016
651.000000, 0.000015
652.000000, 0.000012
653.000000, 0.000014
654.000000, 0.000012
655.000000, 0.000013
656.000000, 0.000008
657.000000, 0.000014
658.000000, 0.000012
659.000000, 0.000014
660.000000, 0.000014
661.000000, 0.000015
662.000000, 0.000016
663.000000, 0.000020
664.000000, 0.000008
665.000000, 0.000013
666.000000, 0.000010
667.000000, 0.000015
668.000000, 0.000005
669.000000, 0.000023
670.000000, 0.000012
671.000000, 0.000007
672.000000, 0.000006
673.000000, 0.000021
674.000000, 0.000013
675.000000, 0.000015
676.000000, 0.000013
677.000000, 0.000018
678.000000, 0.000011
679.000000, 0.000008
680.000000, 0.000020
681.000000, 0.000006
682.000000, 0.000010
683.000000, 0.000016
684.000000, 0.000006
685.000000, 0.000013
686.000000, 0.000023
687.000000, 0.000010
688.000000, 0.000007
689.000000, 0.000009
690.000000, 0.000018
691.000000, 0.000009
692.000000, 0.000014
693.000000, 0.000029
694.000000, 0.000006
695.000000, 0.000011
696.000000, 0.000021
697.000000, 0.000008
698.000000, 0.000018
699.000000, 0.000008
700.000000, 0.000021
701.000000, 0.000007
702.000000, 0.000010
703.000000, 0.000024
704.000000, 0.000004
705.000000, 0.000008
706.000000, 0.000008
707.000000, 0.000017
708.000000, 0.000006
709.000000, 0.000014
710.000000, 0.000010
711.000000, 0.000022
712.000000, 0.000008
713.000000, 0.000009
714.000000, 0.000011
715.000000, 0.000022
716.000000, 0.000013
717.000000, 0.000010
718.000000, 0.000023
719.000000, 0.000010
720.000000, 0.000006
721.000000, 0.000008
722.000000, 0.000012
723.000000, 0.000020
724.000000, 0.000010
725.000000, 0.000010
726.000000, 0.000014
727.000000, 0.000024
728.000000, 0.000009
729.000000, 0.000015
730.000000, 0.000012
731.000000, 0.000008
732.000000, 0.000031
733.000000, 0.000015
734.000000, 0.000013
735.000000, 0.000014
736.000000, 0.000022
737.000000, 0.000014
738.000000, 0.000017
739.000000, 0.000013
740.000000, 0.000018
741.000000, 0.000007
742.000000, 0.000012
743.000000, 0.000005
744.000000, 0.000015
745.000000, 0.000017
746.000000, 0.000013
747.000000, 0.000014
748.000000, 0.000016
749.000000, 0.000012
750.000000, 0.000031
751.000000, 0.000016
752.000000, 0.000011
753.000000, 0.000013
754.000000, 0.000027
755.000000, 0.000022
756.000000, 0.000016
757.000000, 0.000027
758.000000, 0.000024
759.000000, 0.000038
760.000000, 0.000038
761.000000, 0.000038
762.000000, 0.000037
763.000000, 0.000066
764.000000, 0.000066
765.000000, 0.000080
766.000000, 0.000105
767.000000, 0.000146
768.000000, 0.000210
769.000000, 0.000252
770.000000, 0.000367
771.000000, 0.000535
772.000000, 0.000766
773.000000, 0.001231
774.000000, 0.001895
775.000000, 0.003092
776.000000, 0.005176
777.000000, 0.009382
778.000000, 0.018296
779.000000, 0.041688
780.000000, 0.135950
781.000000, 0.831509
782.000000, 5.287974
783.000000, 10.147790
784.000000, 6.402666
785.000000, 1.886697
786.000000, 0.620697
787.000000, 0.459529
788.000000, 0.430939
789.000000, 0.465825
790.000000, 0.565427
791.000000, 0.767240
792.000000, 1.211189
793.000000, 2.398182
794.000000, 6.712499
795.000000, 19.320730
796.000000, 30.403292
797.000000, 23.041624
798.000000, 6.552826
799.000000, 3.515803
800.000000, 4.256920
801.000000, 4.205189
802.000000, 4.228167
803.000000, 4.326128
804.000000, 4.488533
805.000000, 4.700344
806.000000, 4.932610
807.000000, 5.176656
808.000000, 5.426493
809.000000, 5.680861
810.000000, 5.939396
811.000000, 6.200460
812.000000, 6.456665
813.000000, 6.701597
814.000000, 6.958711
815.000000, 7.191527
816.000000, 7.431492
817.000000, 7.679578
818.000000, 7.951211
819.000000, 8.199043
820.000000, 8.356462
821.000000, 8.420239
822.000000, 8.392717
823.000000, 8.265283
824.000000, 8.076193
825.000000, 7.851928
826.000000, 7.606765
827.000000, 7.395752
828.000000, 7.237999
829.000000, 7.177788
830.000000, 7.241289
831.000000, 7.437519
832.000000, 7.741663
833.000000, 8.161302
834.000000, 8.638971
835.000000, 9.154000
836.000000, 9.703462
837.000000, 10.345046
838.000000, 11.102778
839.000000, 12.226001
840.000000, 13.708104
841.000000, 15.317334
842.000000, 17.200546
843.000000, 19.336439
844.000000, 21.609968
845.000000, 24.107998
846.000000, 26.627699
847.000000, 28.767984
848.000000, 30.123255
849.000000, 30.211290
850.000000, 29.082275
851.000000, 27.268219
852.000000, 24.987032
853.000000, 22.649700
854.000000, 20.441031
855.000000, 18.429535
856.000000, 16.619228
857.000000, 15.125783
858.000000, 13.833529
859.000000, 12.735491
860.000000, 11.870549
861.000000, 11.155302
862.000000, 10.602282
863.000000, 10.235134
864.000000, 10.097651
865.000000, 10.219310
866.000000, 10.626778
867.000000, 11.261157
868.000000, 12.166658
869.000000, 13.293677
870.000000, 14.605255
871.000000, 16.230221
872.000000, 18.181967
873.000000, 20.479519
874.000000, 23.404715
875.000000, 26.983601
876.000000, 31.127680
877.000000, 35.931576
878.000000, 41.386593
879.000000, 46.585430
880.000000, 51.097000
881.000000, 53.665436
882.000000, 53.297131
883.000000, 50.439453
884.000000, 45.889683
885.000000, 40.762768
886.000000, 35.710651
887.000000, 30.938005
888.000000, 26.755604
889.000000, 23.426407
890.000000, 20.560457
891.000000, 18.267670
892.000000, 16.412119
893.000000, 14.890282
894.000000, 13.672527
895.000000, 12.786119
896.000000, 12.119877
897.000000, 11.657519
898.000000, 11.375650
899.000000, 11.236140
900.000000, 11.242287
901.000000, 11.389514
902.000000, 11.658263
903.000000, 12.029345
904.000000, 12.563690
905.000000, 13.202921
906.000000, 14.076239
907.000000, 15.167716
908.000000, 16.427086
909.000000, 17.973120
910.000000, 19.837902
911.000000, 22.050951
912.000000, 24.804394
913.000000, 28.178915
914.000000, 32.085392
915.000000, 36.785049
916.000000, 42.244179
917.000000, 48.093719
918.000000, 54.566120
919.000000, 60.842506
920.000000, 65.932915
921.000000, 69.246117
922.000000, 69.874405
923.000000, 68.115959
924.000000, 64.506577
925.000000, 59.316998
926.000000, 53.618477
927.000000, 48.324181
928.000000, 43.314236
929.000000, 39.002724
930.000000, 35.325855
931.000000, 32.182293
932.000000, 29.484564
933.000000, 27.359486
934.000000, 25.630306
935.000000, 24.182119
936.000000, 23.096012
937.000000, 22.208817
938.000000, 21.532671
939.000000, 21.101477
940.000000, 20.841141
941.000000, 20.753775
942.000000, 20.856075
943.000000, 21.107611
944.000000, 21.530920
945.000000, 22.154495
946.000000, 22.932592
947.000000, 23.933897
948.000000, 25.151440
949.000000, 26.560884
950.000000, 28.302872
951.000000, 30.429178
952.000000, 32.823547
953.000000, 35.608788
954.000000, 38.882298
955.000000, 42.584263
956.000000, 46.741020
957.000000, 51.509178
958.000000, 56.646473
959.000000, 61.963238
960.000000, 67.223587
961.000000, 72.277985
962.000000, 76.437614
963.000000, 79.544899
964.000000, 81.080780
965.000000, 80.867180
966.000000, 79.127464
967.000000, 75.992790
968.000000, 72.047081
969.000000, 67.417358
970.000000, 62.576157
971.000000, 57.882172
972.000000, 53.446751
973.000000, 49.416100
974.000000, 45.822529
975.000000, 42.638660
976.000000, 39.774735
977.000000, 37.323997
978.000000, 35.225849
979.000000, 33.481651
980.000000, 32.001274
981.000000, 30.820396
982.000000, 29.736206
983.000000, 28.908813
984.000000, 28.308681
985.000000, 27.859726
986.000000, 27.533758
987.000000, 27.382738
988.000000, 27.358845
989.000000, 27.524895
990.000000, 27.743092
991.000000, 28.189165
992.000000, 28.768169
993.000000, 29.488724
994.000000, 30.361530
995.000000, 31.418541
996.000000, 32.693550
997.000000, 34.139061
998.000000, 35.827057
999.000000, 37.689034
1000.000000, 39.759315
1001.000000, 42.167728
1002.000000, 44.976418
1003.000000, 47.801643
1004.000000, 51.110680
1005.000000, 54.550941
1006.000000, 58.149181
1007.000000, 62.024837
1008.000000, 66.032303
1009.000000, 69.686577
1010.000000, 73.168022
1011.000000, 76.261971
1012.000000, 78.715622
1013.000000, 80.370941
1014.000000, 81.171722
1015.000000, 81.249199
1016.000000, 80.288574
1017.000000, 78.473572
1018.000000, 76.111671
1019.000000, 73.385658
1020.000000, 70.110931
1021.000000, 66.807541
1022.000000, 63.606464
1023.000000, 60.323978
1024.000000, 57.192146
1025.000000, 54.236454
1026.000000, 51.560764
1027.000000, 49.050076
1028.000000, 46.800770
1029.000000, 44.832878
1030.000000, 43.005856
1031.000000, 41.475281
1032.000000, 40.119350
1033.000000, 38.914825
1034.000000, 37.852921
1035.000000, 37.060623
1036.000000, 36.352470
1037.000000, 35.792889
1038.000000, 35.394623
1039.000000, 35.079708
1040.000000, 34.893738
1041.000000, 34.879936
1042.000000, 34.973915
1043.000000, 35.167549
1044.000000, 35.474731
1045.000000, 35.904442
1046.000000, 36.495991
1047.000000, 37.243797
1048.000000, 38.071373
1049.000000, 39.002590
1050.000000, 40.126221
1051.000000, 41.362797
1052.000000, 42.750462
1053.000000, 44.440315
1054.000000, 46.105186
1055.000000, 48.038780
1056.000000, 50.080193
1057.000000, 52.215130
1058.000000, 54.618126
1059.000000, 57.254486
1060.000000, 59.869671
1061.000000, 62.663971
1062.000000, 65.495598
1063.000000, 68.361671
1064.000000, 71.117722
1065.000000, 73.829178
1066.000000, 76.533531
1067.000000, 78.561867
1068.000000, 80.549416
1069.000000, 82.163277
1070.000000, 83.212975
1071.000000, 83.763466
1072.000000, 83.895523
1073.000000, 83.450691
1074.000000, 82.594666
1075.000000, 81.388275
1076.000000, 79.859055
1077.000000, 77.987457
1078.000000, 75.830833
1079.000000, 73.571930
1080.000000, 71.211746
1081.000000, 68.885200
1082.000000, 66.551025
1083.000000, 64.301872
1084.000000, 62.028378
1085.000000, 59.915195
1086.000000, 57.900608
1087.000000, 55.990307
1088.000000, 54.319424
1089.000000, 52.733356
1090.000000, 51.263535
1091.000000, 49.888149
1092.000000, 48.711903
1093.000000, 47.629864
1094.000000, 46.664268
1095.000000, 45.917057
1096.000000, 45.203747
1097.000000, 44.603024
1098.000000, 44.160065
1099.000000, 43.784523
1100.000000, 43.565861
1101.000000, 43.396469
1102.000000, 43.383595
1103.000000, 43.396152
1104.000000, 43.552864
1105.000000, 43.847244
1106.000000, 44.203175
1107.000000, 44.645958
1108.000000, 45.237633
1109.000000, 45.873718
1110.000000, 46.682419
1111.000000, 47.535881
1112.000000, 48.524097
1113.000000, 49.588161
1114.000000, 50.749905
1115.000000, 52.011471
1116.000000, 53.439938
1117.000000, 54.992752
1118.000000, 56.561493
1119.000000, 58.214027
1120.000000, 60.037811
1121.000000, 61.836987
1122.000000, 63.862610
1123.000000, 66.039780
1124.000000, 68.062233
1125.000000, 70.197365
1126.000000, 72.325584
1127.000000, 74.390427
1128.000000, 76.457062
1129.000000, 78.528069
1130.000000, 80.348885
1131.000000, 82.090851
1132.000000, 83.504547
1133.000000, 84.918037
1134.000000, 85.950157
1135.000000, 86.843498
1136.000000, 87.362442
1137.000000, 87.556107
1138.000000, 87.639931
1139.000000, 87.181274
1140.000000, 86.685188
1141.000000, 85.738632
1142.000000, 84.707916
1143.000000, 83.623405
1144.000000, 82.094345
1145.000000, 80.612877
1146.000000, 79.033707
1147.000000, 77.477707
1148.000000, 75.672707
1149.000000, 73.912827
1150.000000, 72.242401
1151.000000, 70.562538
1152.000000, 68.901947
1153.000000, 67.279678
1154.000000, 65.756859
1155.000000, 64.345978
1156.000000, 62.871128
1157.000000, 61.640240
1158.000000, 60.423351
1159.000000, 59.334831
1160.000000, 58.322346
1161.000000, 57.300995
1162.000000, 56.398563
1163.000000, 55.677269
1164.000000, 54.976547
1165.000000, 54.390526
1166.000000, 53.893250
1167.000000, 53.485046
1168.000000, 53.056782
1169.000000, 52.861023
1170.000000, 52.647854
1171.000000, 52.520538
1172.000000, 52.463394
1173.000000, 52.489651
1174.000000, 52.639759
1175.000000, 52.738602
1176.000000, 52.994900
1177.000000, 53.328903
1178.000000, 53.730946
1179.000000, 54.167461
1180.000000, 54.776817
1181.000000, 55.416065
1182.000000, 56.141060
1183.000000, 56.889610
1184.000000, 57.719524
1185.000000, 58.606182
1186.000000, 59.597736
1187.000000, 60.670628
1188.000000, 61.790276
1189.000000, 62.869133
1190.000000, 64.037689
1191.000000, 65.282051
1192.000000, 66.656166
1193.000000, 67.944542
1194.000000, 69.397179
1195.000000, 70.806129
1196.000000, 72.329758
1197.000000, 73.685089
1198.000000, 75.088028
1199.000000, 76.545815
1200.000000, 77.887352
1201.000000, 79.485283
1202.000000, 80.647636
1203.000000, 81.905441
1204.000000, 82.921616
1205.000000, 83.954811
1206.000000, 84.835304
1207.000000, 85.655083
1208.000000, 86.382950
1209.000000, 86.853462
1210.000000, 87.212494
1211.000000, 87.452835
1212.000000, 87.492012
1213.000000, 87.451569
1214.000000, 87.289703
1215.000000, 86.988991
1216.000000, 86.434555
1217.000000, 85.950478
1218.000000, 85.259293
1219.000000, 84.431282
1220.000000, 83.492073
1221.000000, 82.566055
1222.000000, 81.481659
1223.000000, 80.582748
1224.000000, 79.451492
1225.000000, 78.273964
1226.000000, 77.283470
1227.000000, 76.171249
1228.000000, 75.141106
1229.000000, 73.973885
1230.000000, 72.913361
1231.000000, 71.773674
1232.000000, 70.781174
1233.000000, 69.850357
1234.000000, 68.907082
1235.000000, 67.966042
1236.000000, 67.186287
1237.000000, 66.263092
1238.000000, 65.471901
1239.000000, 64.889214
1240.000000, 64.276306
1241.000000, 63.678158
1242.000000, 63.141434
1243.000000, 62.649597
1244.000000, 62.284016
1245.000000, 61.865311
1246.000000, 61.659016
1247.000000, 61.308636
1248.000000, 61.132641
1249.000000, 60.922424
1250.000000, 60.903271
1251.000000, 60.821827
1252.000000, 60.775208
1253.000000, 60.799389
1254.000000, 60.894531
1255.000000, 61.097614
1256.000000, 61.279083
1257.000000, 61.574070
1258.000000, 61.829113
1259.000000, 62.154369
1260.000000, 62.530018
1261.000000, 62.985249
1262.000000, 63.485569
1263.000000, 64.158279
1264.000000, 64.696320
1265.000000, 65.322220
1266.000000, 65.951004
1267.000000, 66.722328
1268.000000, 67.453888
1269.000000, 68.340912
1270.000000, 69.232452
1271.000000, 70.028976
1272.000000, 70.878510
1273.000000, 71.829124
1274.000000, 72.761269
1275.000000, 73.784119
1276.000000, 74.803421
1277.000000, 75.751328
1278.000000, 76.813660
1279.000000, 77.791908
1280.000000, 78.752731
1281.000000, 79.796715
1282.000000, 80.859032
1283.000000, 81.948746
1284.000000, 82.835701
1285.000000, 83.857567
1286.000000, 84.679886
1287.000000, 85.512581
1288.000000, 86.338928
1289.000000, 87.202896
1290.000000, 87.814125
1291.000000, 88.442017
1292.000000, 89.018799
1293.000000, 89.481339
1294.000000, 89.925163
1295.000000, 90.231537
1296.000000, 90.460663
1297.000000, 90.523392
1298.000000, 90.799240
1299.000000, 90.828934
1300.000000, 90.684525
1301.000000, 90.581055
1302.000000, 90.439201
1303.000000, 90.123650
1304.000000, 89.806015
1305.000000, 89.369438
1306.000000, 88.925346
1307.000000, 88.315315
1308.000000, 87.754608
1309.000000, 87.243462
1310.000000, 86.476349
1311.000000, 85.865501
1312.000000, 85.212067
1313.000000, 84.432571
1314.000000, 83.739952
1315.000000, 83.036751
1316.000000, 82.221725
1317.000000, 81.507401
1318.000000, 80.844238
1319.000000, 80.094337
1320.000000, 79.298035
1321.000000, 78.603073
1322.000000, 77.972450
1323.000000, 77.279167
1324.000000, 76.617088
1325.000000, 76.083984
1326.000000, 75.317200
1327.000000, 74.712341
1328.000000, 74.237610
1329.000000, 73.754127
1330.000000, 73.291855
1331.000000, 72.789017
1332.000000, 72.442261
1333.000000, 72.099167
1334.000000, 71.560059
1335.000000, 71.366714
1336.000000, 71.102699
1337.000000, 70.870651
1338.000000, 70.684868
1339.000000, 70.424889
1340.000000, 70.427673
1341.000000, 70.178314
1342.000000, 70.083008
1343.000000, 70.056618
1344.000000, 70.031700
1345.000000, 70.026985
1346.000000, 70.152237
1347.000000, 70.188225
1348.000000, 70.333778
1349.000000, 70.444107
1350.000000, 70.569901
1351.000000, 70.796761
1352.000000, 70.998444
1353.000000, 71.308815
1354.000000, 71.614059
1355.000000, 71.984810
1356.000000, 72.370430
1357.000000, 72.748009
1358.000000, 73.187057
1359.000000, 73.643890
1360.000000, 74.089195
1361.000000, 74.667480
1362.000000, 75.091026
1363.000000, 75.684082
1364.000000, 76.140144
1365.000000, 76.790581
1366.000000, 77.335449
1367.000000, 77.886627
1368.000000, 78.467255
1369.000000, 79.102951
1370.000000, 79.687157
1371.000000, 80.342628
1372.000000, 80.832710
1373.000000, 81.568878
1374.000000, 82.123833
1375.000000, 82.743431
1376.000000, 83.371735
1377.000000, 84.020844
1378.000000, 84.574562
1379.000000, 85.089561
1380.000000, 85.705414
1381.000000, 86.295143
1382.000000, 86.745605
1383.000000, 87.262474
1384.000000, 87.549591
1385.000000, 88.095535
1386.000000, 88.513351
1387.000000, 88.859970
1388.000000, 89.092941
1389.000000, 89.379280
1390.000000, 89.621040
1391.000000, 89.822372
1392.000000, 89.998695
1393.000000, 90.065453
1394.000000, 90.102806
1395.000000, 90.218124
1396.000000, 90.255325
1397.000000, 90.179619
1398.000000, 90.113472
1399.000000, 89.924355
1400.000000, 89.873665
1401.000000, 89.737579
1402.000000, 89.372971
1403.000000, 89.143944
1404.000000, 88.800110
1405.000000, 88.434204
1406.000000, 88.045280
1407.000000, 87.733818
1408.000000, 87.191505
1409.000000, 86.820183
1410.000000, 86.289246
1411.000000, 85.869209
1412.000000, 85.328819
1413.000000, 84.781166
1414.000000, 84.341393
1415.000000, 83.791557
1416.000000, 83.202255
1417.000000, 82.752899
1418.000000, 82.243980
1419.000000, 81.696304
1420.000000, 81.197380
1421.000000, 80.640610
1422.000000, 80.091698
1423.000000, 79.598084
1424.000000, 79.076889
1425.000000, 78.557358
1426.000000, 78.191826
1427.000000, 77.772346
1428.000000, 77.322044
1429.000000, 76.801323
1430.000000, 76.429237
1431.000000, 76.083565
1432.000000, 75.638626
1433.000000, 75.330490
1434.000000, 74.952156
1435.000000, 74.641251
1436.000000, 74.471092
1437.000000, 74.137505
1438.000000, 73.963753
1439.000000, 73.687851
1440.000000, 73.425919
1441.000000, 73.344475
1442.000000, 73.156853
1443.000000, 72.900841
1444.000000, 72.845039
1445.000000, 72.643753
1446.000000, 72.632256
1447.000000, 72.439728
1448.000000, 72.522293
1449.000000, 72.385727
1450.000000, 72.485336
1451.000000, 72.472969
1452.000000, 72.487267
1453.000000, 72.490463
1454.000000, 72.665703
1455.000000, 72.614777
1456.000000, 72.807030
1457.000000, 72.911980
1458.000000, 73.025825
1459.000000, 73.094414
1460.000000, 73.292336
1461.000000, 73.586060
1462.000000, 73.770500
1463.000000, 74.020966
1464.000000, 74.386772
1465.000000, 74.498566
1466.000000, 74.832252
1467.000000, 75.147522
1468.000000, 75.430618
1469.000000, 75.793266
1470.000000, 76.163574
1471.000000, 76.458786
1472.000000, 76.751648
1473.000000, 77.219742
1474.000000, 77.611549
1475.000000, 77.928352
1476.000000, 78.477165
1477.000000, 78.771355
1478.000000, 79.270042
1479.000000, 79.689453
1480.000000, 80.164192
1481.000000, 80.486664
1482.000000, 81.004326
1483.000000, 81.394264
1484.000000, 81.854233
1485.000000, 82.277641
1486.000000, 82.797325
1487.000000, 83.200272
1488.000000, 83.650795
1489.000000, 84.161964
1490.000000, 84.536324
1491.000000, 85.025093
1492.000000, 85.395554
1493.000000, 85.842720
1494.000000, 86.352585
1495.000000, 86.640442
1496.000000, 86.944084
1497.000000, 87.413727
1498.000000, 87.741341
1499.000000, 88.239014
1500.000000, 88.559219
1501.000000, 88.750969
1502.000000, 89.177567
1503.000000, 89.358131
1504.000000, 89.638947
1505.000000, 89.876511
1506.000000, 90.244476
1507.000000, 90.332161
1508.000000, 90.546783
1509.000000, 90.706551
1510.000000, 90.775749
1511.000000, 90.998711
1512.000000, 90.912041
1513.000000, 90.995850
1514.000000, 91.062401
1515.000000, 91.060257
1516.000000, 91.021713
1517.000000, 90.918312
1518.000000, 91.020874
1519.000000, 90.990952
1520.000000, 90.743217
1521.000000, 90.671173
1522.000000, 90.397110
1523.000000, 90.244850
1524.000000, 90.186317
1525.000000, 89.867989
1526.000000, 89.680252
1527.000000, 89.513573
1528.000000, 89.179001
1529.000000, 89.002815
1530.000000, 88.791954
1531.000000, 88.471764
1532.000000, 88.185158
1533.000000, 87.941864
1534.000000, 87.655373
1535.000000, 87.455345
1536.000000, 87.130257
1537.000000, 86.798737
1538.000000, 86.420372
1539.000000, 86.157341
1540.000000, 85.790100
1541.000000, 85.465378
1542.000000, 85.286293
1543.000000, 84.987656
1544.000000, 84.704453
1545.000000, 84.364372
1546.000000, 84.060761
1547.000000, 83.786507
1548.000000, 83.535995
1549.000000, 83.319038
1550.000000, 83.064964
1551.000000, 82.776901
1552.000000, 82.468529
1553.000000, 82.272903
1554.000000, 82.096329
1555.000000, 81.801811
1556.000000, 81.569992
1557.000000, 81.348511
1558.000000, 81.095894
1559.000000, 80.920090
1560.000000, 80.710999
1561.000000, 80.643555
1562.000000, 80.503311
1563.000000, 80.196976
1564.000000, 80.059334
1565.000000, 80.035683
1566.000000, 79.879059
1567.000000, 79.780510
1568.000000, 79.655876
1569.000000, 79.582390
1570.000000, 79.579803
1571.000000, 79.464981
1572.000000, 79.283867
1573.000000, 79.321884
1574.000000, 79.296753
1575.000000, 79.190033
1576.000000, 79.164902
1577.000000, 79.191933
1578.000000, 79.261482
1579.000000, 79.228821
1580.000000, 79.148018
1581.000000, 79.342308
1582.000000, 79.299500
1583.000000, 79.297806
1584.000000, 79.364883
1585.000000, 79.517593
1586.000000, 79.502983
1587.000000, 79.606918
1588.000000, 79.752403
1589.000000, 79.985550
1590.000000, 79.991898
1591.000000, 80.200783
1592.000000, 80.363716
1593.000000, 80.525040
1594.000000, 80.746582
1595.000000, 80.914864
1596.000000, 80.966965
1597.000000, 81.288513
1598.000000, 81.402611
1599.000000, 81.643929
1600.000000, 81.857590
1601.000000, 82.071152
1602.000000, 82.278107
1603.000000, 82.609085
1604.000000, 82.756958
1605.000000, 83.017479
1606.000000, 83.178238
1607.000000, 83.463135
1608.000000, 83.655205
1609.000000, 83.904419
1610.000000, 84.289459
1611.000000, 84.480629
1612.000000, 84.710541
1613.000000, 85.062263
1614.000000, 85.206207
1615.000000, 85.419624
1616.000000, 85.768127
1617.000000, 85.938416
1618.000000, 86.243736
1619.000000, 86.542480
1620.000000, 86.701736
1621.000000, 87.059746
1622.000000, 87.269119
1623.000000, 87.476570
1624.000000, 87.947044
1625.000000, 88.161682
1626.000000, 88.265259
1627.000000, 88.490051
1628.000000, 88.791939
1629.000000, 88.995750
1630.000000, 89.228928
1631.000000, 89.319366
1632.000000, 89.619835
1633.000000, 89.840729
1634.000000, 90.027809
1635.000000, 90.158356
1636.000000, 90.372246
1637.000000, 90.502083
1638.000000, 90.667961
1639.000000, 90.694984
1640.000000, 90.762932
1641.000000, 90.818565
1642.000000, 91.039734
1643.000000, 90.976959
1644.000000, 91.084427
1645.000000, 91.198914
1646.000000, 91.124840
1647.000000, 91.168457
1648.000000, 91.318481
1649.000000, 91.390953
1650.000000, 91.291107
1651.000000, 91.175262
1652.000000, 91.244003
1653.000000, 91.201828
1654.000000, 91.180351
1655.000000, 91.123352
1656.000000, 90.946350
1657.000000, 90.994667
1658.000000, 90.691284
1659.000000, 90.524750
1660.000000, 90.386345
1661.000000, 90.302917
1662.000000, 90.041176
1663.000000, 89.734200
1664.000000, 89.534286
1665.000000, 89.297501
1666.000000, 89.087090
1667.000000, 88.808220
1668.000000, 88.660255
1669.000000, 88.303360
1670.000000, 88.208221
1671.000000, 87.975533
1672.000000, 87.943832
1673.000000, 87.809158
1674.000000, 87.741348
1675.000000, 87.645363
1676.000000, 87.431847
1677.000000, 87.158928
1678.000000, 87.161400
1679.000000, 86.984352
1680.000000, 86.759476
1681.000000, 86.629578
1682.000000, 86.347076
1683.000000, 86.068031
1684.000000, 85.876099
1685.000000, 85.578712
1686.000000, 85.418549
1687.000000, 85.170021
1688.000000, 84.922165
1689.000000, 84.736664
1690.000000, 84.440575
1691.000000, 84.297142
1692.000000, 84.134743
1693.000000, 83.972679
1694.000000, 83.872116
1695.000000, 83.559814
1696.000000, 83.423454
1697.000000, 83.207504
1698.000000, 82.996979
1699.000000, 82.932838
1700.000000, 82.679138
1701.000000, 82.582001
1702.000000, 82.456146
1703.000000, 82.295715
1704.000000, 82.248283
1705.000000, 82.068420
1706.000000, 81.970535
1707.000000, 82.007141
1708.000000, 81.940590
1709.000000, 81.814697
1710.000000, 81.782516
1711.000000, 81.555527
1712.000000, 81.687279
1713.000000, 81.529945
1714.000000, 81.456795
1715.000000, 81.303497
1716.000000, 81.212929
1717.000000, 81.248306
1718.000000, 81.223152
1719.000000, 81.154945
1720.000000, 81.058334
1721.000000, 80.974541
1722.000000, 81.004105
1723.000000, 80.959305
1724.000000, 81.011406
1725.000000, 81.017838
1726.000000, 81.011070
1727.000000, 80.943748
1728.000000, 81.017456
1729.000000, 80.963005
1730.000000, 81.012383
1731.000000, 80.995834
1732.000000, 81.103691
1733.000000, 81.113922
1734.000000, 81.113228
1735.000000, 81.142662
1736.000000, 81.160339
1737.000000, 81.294327
1738.000000, 81.373238
1739.000000, 81.426994
1740.000000, 81.537186
1741.000000, 81.785408
1742.000000, 81.712242
1743.000000, 81.965706
1744.000000, 81.997993
1745.000000, 82.192596
1746.000000, 82.421646
1747.000000, 82.569420
1748.000000, 82.566269
1749.000000, 82.753548
1750.000000, 82.884941
1751.000000, 83.046318
1752.000000, 83.181938
1753.000000, 83.281136
1754.000000, 83.541000
1755.000000, 83.625458
1756.000000, 83.921829
1757.000000, 84.066727
1758.000000, 84.178749
1759.000000, 84.369102
1760.000000, 84.418228
1761.000000, 84.662903
1762.000000, 84.847931
1763.000000, 84.817955
1764.000000, 85.014992
1765.000000, 85.190147
1766.000000, 85.299934
1767.000000, 85.584526
1768.000000, 85.703033
1769.000000, 85.860413
1770.000000, 85.996231
1771.000000, 86.254585
1772.000000, 86.341194
1773.000000, 86.551872
1774.000000, 86.795380
1775.000000, 86.947960
1776.000000, 87.161896
1777.000000, 87.250610
1778.000000, 87.558464
1779.000000, 87.572914
1780.000000, 87.934967
1781.000000, 88.082466
1782.000000, 88.189407
1783.000000, 88.366577
1784.000000, 88.622681
1785.000000, 88.768951
1786.000000, 88.978729
1787.000000, 89.064316
1788.000000, 89.230171
1789.000000, 89.373817
1790.000000, 89.555672
1791.000000, 89.668503
1792.000000, 89.784943
1793.000000, 89.904228
1794.000000, 90.174545
1795.000000, 90.223076
1796.000000, 90.336365
1797.000000, 90.430176
1798.000000, 90.518608
1799.000000, 90.640533
1800.000000, 90.703896
1801.000000, 90.766937
1802.000000, 90.784271
1803.000000, 90.921722
1804.000000, 90.982155
1805.000000, 90.948586
1806.000000, 91.098953
1807.000000, 91.140213
1808.000000, 91.214806
1809.000000, 91.231842
1810.000000, 91.261024
1811.000000, 91.237000
1812.000000, 91.218155
1813.000000, 91.238960
1814.000000, 91.236321
1815.000000, 91.225853
1816.000000, 91.245049
1817.000000, 91.175591
1818.000000, 91.219101
1819.000000, 91.090279
1820.000000, 91.049667
1821.000000, 91.088745
1822.000000, 91.097107
1823.000000, 90.949127
1824.000000, 90.935287
1825.000000, 90.804939
1826.000000, 90.942093
1827.000000, 90.766998
1828.000000, 90.614052
1829.000000, 90.594307
1830.000000, 90.452942
1831.000000, 90.449951
1832.000000, 90.295120
1833.000000, 90.169975
1834.000000, 90.173531
1835.000000, 90.032288
1836.000000, 89.953987
1837.000000, 89.848267
1838.000000, 89.699539
1839.000000, 89.508270
1840.000000, 89.449707
1841.000000, 89.401459
1842.000000, 89.228539
1843.000000, 89.130478
1844.000000, 88.831505
1845.000000, 88.698975
1846.000000, 88.606117
1847.000000, 88.551781
1848.000000, 88.439354
1849.000000, 88.308197
1850.000000, 88.104759
1851.000000, 87.940674
1852.000000, 87.820007
1853.000000, 87.716499
1854.000000, 87.500641
1855.000000, 87.511787
1856.000000, 87.382454
1857.000000, 87.128075
1858.000000, 86.986000
1859.000000, 86.802467
1860.000000, 86.670204
1861.000000, 86.619766
1862.000000, 86.307175
1863.000000, 86.333122
1864.000000, 86.096397
1865.000000, 85.970810
1866.000000, 85.858521
1867.000000, 85.687378
1868.000000, 85.585007
1869.000000, 85.508224
1870.000000, 85.349579
1871.000000, 85.132858
1872.000000, 85.092346
1873.000000, 84.883728
1874.000000, 84.714218
1875.000000, 84.707520
1876.000000, 84.544861
1877.000000, 84.387497
1878.000000, 84.250267
1879.000000, 84.204956
1880.000000, 84.092331
1881.000000, 84.040375
1882.000000, 83.890060
1883.000000, 83.746582
1884.000000, 83.640793
1885.000000, 83.580528
1886.000000, 83.546410
1887.000000, 83.418419
1888.000000, 83.284172
1889.000000, 83.221626
1890.000000, 83.081970
1891.000000, 83.119736
1892.000000, 82.984062
1893.000000, 83.017532
1894.000000, 82.925797
1895.000000, 82.872337
1896.000000, 82.779236
1897.000000, 82.780556
1898.000000, 82.624969
1899.000000, 82.513962
1900.000000, 82.482185
1901.000000, 82.487366
1902.000000, 82.400635
1903.000000, 82.482529
1904.000000, 82.441612
1905.000000, 82.291389
1906.000000, 82.202759
1907.000000, 82.240746
1908.000000, 82.271011
1909.000000, 82.284798
1910.000000, 82.224609
1911.000000, 82.285034
1912.000000, 82.195854
1913.000000, 82.295593
1914.000000, 82.066635
1915.000000, 82.288979
1916.000000, 82.308182
1917.000000, 82.256874
1918.000000, 82.175987
1919.000000, 82.233505
1920.000000, 82.262184
1921.000000, 82.322334
1922.000000, 82.351753
1923.000000, 82.382408
1924.000000, 82.413307
1925.000000, 82.421898
1926.000000, 82.501946
1927.000000, 82.549744
1928.000000, 82.575729
1929.000000, 82.732506
1930.000000, 82.736000
1931.000000, 82.814911
1932.000000, 82.857254
1933.000000, 82.966324
1934.000000, 82.965111
1935.000000, 83.135704
1936.000000, 83.157326
1937.000000, 83.301720
1938.000000, 83.254555
1939.000000, 83.555405
1940.000000, 83.540474
1941.000000, 83.624664
1942.000000, 83.744583
1943.000000, 83.708252
1944.000000, 83.819183
1945.000000, 83.927139
1946.000000, 84.132195
1947.000000, 84.144707
1948.000000, 84.213150
1949.000000, 84.306419
1950.000000, 84.492157
1951.000000, 84.602959
1952.000000, 84.729401
1953.000000, 84.760735
1954.000000, 84.863838
1955.000000, 84.966629
1956.000000, 85.033112
1957.000000, 85.143860
1958.000000, 85.207153
1959.000000, 85.383057
1960.000000, 85.439751
1961.000000, 85.533272
1962.000000, 85.639854
1963.000000, 85.816185
1964.000000, 85.937462
1965.000000, 85.992424
1966.000000, 86.061249
1967.000000, 86.223114
1968.000000, 86.431213
1969.000000, 86.599556
1970.000000, 86.750488
1971.000000, 86.838608
1972.000000, 86.930206
1973.000000, 87.072929
1974.000000, 87.246132
1975.000000, 87.284485
1976.000000, 87.463310
1977.000000, 87.548409
1978.000000, 87.591072
1979.000000, 87.683380
1980.000000, 87.939484
1981.000000, 88.022095
1982.000000, 88.183678
1983.000000, 88.217667
1984.000000, 88.331436
1985.000000, 88.410522
1986.000000, 88.492920
1987.000000, 88.647537
1988.000000, 88.768173
1989.000000, 88.746384
1990.000000, 88.816795
1991.000000, 88.976311
1992.000000, 89.064995
1993.000000, 89.033577
1994.000000, 89.208183
1995.000000, 89.378922
1996.000000, 89.411034
1997.000000, 89.377609
1998.000000, 89.422050
1999.000000, 89.509407
2000.000000, 89.606514
2001.000000, 89.583000
2002.000000, 89.711975
2003.000000, 89.771416
2004.000000, 89.805618
2005.000000, 89.853737
2006.000000, 89.884399
2007.000000, 90.018410
2008.000000, 89.996155
2009.000000, 90.053398
2010.000000, 90.046860
2011.000000, 90.163422
2012.000000, 90.268234
2013.000000, 90.084579
2014.000000, 90.173882
2015.000000, 90.238174
2016.000000, 90.273628
2017.000000, 90.313362
2018.000000, 90.266708
2019.000000, 90.358063
2020.000000, 90.228172
2021.000000, 90.363007
2022.000000, 90.348038
2023.000000, 90.264046
2024.000000, 90.349442
2025.000000, 90.246605
2026.000000, 90.290192
2027.000000, 90.303802
2028.000000, 90.258934
2029.000000, 90.283043
2030.000000, 90.213081
2031.000000, 90.209641
2032.000000, 90.208229
2033.000000, 90.279129
2034.000000, 90.129784
2035.000000, 90.077538
2036.000000, 90.079445
2037.000000, 90.047821
2038.000000, 89.951012
2039.000000, 90.059441
2040.000000, 89.926750
2041.000000, 89.778168
2042.000000, 89.846901
2043.000000, 89.782784
2044.000000, 89.693451
2045.000000, 89.698280
2046.000000, 89.527191
2047.000000, 89.575684
2048.000000, 89.476929
2049.000000, 89.450401
2050.000000, 89.284554
2051.000000, 89.248047
2052.000000, 89.331779
2053.000000, 89.330147
2054.000000, 89.151344
2055.000000, 89.096405
2056.000000, 88.965729
2057.000000, 88.886299
2058.000000, 88.833572
2059.000000, 88.865501
2060.000000, 88.729988
2061.000000, 88.610214
2062.000000, 88.486343
2063.000000, 88.447098
2064.000000, 88.352699
2065.000000, 88.346771
2066.000000, 88.348022
2067.000000, 88.070183
2068.000000, 87.975967
2069.000000, 87.992409
2070.000000, 87.789902
2071.000000, 87.759735
2072.000000, 87.728622
2073.000000, 87.594986
2074.000000, 87.509926
2075.000000, 87.404556
2076.000000, 87.425125
2077.000000, 87.096130
2078.000000, 87.095428
2079.000000, 87.051506
2080.000000, 86.822495
2081.000000, 86.933495
2082.000000, 86.714241
2083.000000, 86.702141
2084.000000, 86.600990
2085.000000, 86.490181
2086.000000, 86.491371
2087.000000, 86.354668
2088.000000, 86.285782
2089.000000, 86.306458
2090.000000, 86.221992
2091.000000, 86.135468
2092.000000, 85.934761
2093.000000, 86.023476
2094.000000, 85.921806
2095.000000, 85.826096
2096.000000, 85.800705
2097.000000, 85.875328
2098.000000, 85.664352
2099.000000, 85.666000
2100.000000, 85.720619
2101.000000, 85.593704
2102.000000, 85.521057
2103.000000, 85.409546
2104.000000, 85.455215
2105.000000, 85.407326
2106.000000, 85.345001
2107.000000, 85.273796
2108.000000, 85.357132
2109.000000, 85.212471
2110.000000, 85.205551
2111.000000, 85.055183
2112.000000, 85.080597
2113.000000, 84.950027
2114.000000, 85.044655
2115.000000, 84.887985
2116.000000, 84.948410
2117.000000, 84.876946
2118.000000, 84.845528
2119.000000, 84.772636
2120.000000, 84.715721
2121.000000, 84.652603
2122.000000, 84.608841
2123.000000, 84.612206
2124.000000, 84.460655
2125.000000, 84.492203
2126.000000, 84.316322
2127.000000, 84.277168
2128.000000, 84.123108
2129.000000, 84.113136
2130.000000, 83.965775
2131.000000, 83.786354
2132.000000, 83.716377
2133.000000, 83.497498
2134.000000, 83.472527
2135.000000, 83.477493
2136.000000, 83.363762
2137.000000, 83.458618
2138.000000, 83.359161
2139.000000, 83.486343
2140.000000, 83.589500
2141.000000, 83.637009
2142.000000, 83.688263
2143.000000, 83.792923
2144.000000, 83.899910
2145.000000, 83.921585
2146.000000, 84.052612
2147.000000, 84.092377
2148.000000, 84.089287
2149.000000, 84.182533
2150.000000, 84.034409
2151.000000, 84.076942
2152.000000, 83.991539
2153.000000, 83.894424
2154.000000, 83.890839
2155.000000, 83.814293
2156.000000, 83.604279
2157.000000, 83.645790
2158.000000, 83.504494
2159.000000, 83.431740
2160.000000, 83.259445
2161.000000, 83.300545
2162.000000, 83.173409
2163.000000, 83.120972
2164.000000, 83.284935
2165.000000, 83.354843
2166.000000, 83.519562
2167.000000, 83.812294
2168.000000, 83.911690
2169.000000, 84.198608
2170.000000, 84.283089
2171.000000, 84.610435
2172.000000, 84.638855
2173.000000, 84.928062
2174.000000, 85.078346
2175.000000, 85.033867
2176.000000, 85.062950
2177.000000, 85.234383
2178.000000, 85.321465
2179.000000, 85.335182
2180.000000, 85.284897
2181.000000, 85.437302
2182.000000, 85.455032
2183.000000, 85.428139
2184.000000, 85.458954
2185.000000, 85.515144
2186.000000, 85.546516
2187.000000, 85.527664
2188.000000, 85.501251
2189.000000, 85.563980
2190.000000, 85.568352
2191.000000, 85.512924
2192.000000, 85.660645
2193.000000, 85.604897
2194.000000, 85.724350
2195.000000, 85.697647
2196.000000, 85.803810
2197.000000, 85.874290
2198.000000, 85.954697
2199.000000, 86.008163
2200.000000, 86.137024
2201.000000, 86.114395
2202.000000, 86.168053
2203.000000, 86.181160
2204.000000, 86.217522
2205.000000, 86.328911
2206.000000, 86.348259
2207.000000, 86.375641
2208.000000, 86.312714
2209.000000, 86.409607
2210.000000, 86.360573
2211.000000, 86.505051
2212.000000, 86.507446
2213.000000, 86.616013
2214.000000, 86.572876
2215.000000, 86.642784
2216.000000, 86.824554
2217.000000, 86.814377
2218.000000, 86.836067
2219.000000, 86.875397
2220.000000, 86.848885
2221.000000, 86.914101
2222.000000, 86.896202
2223.000000, 86.914009
2224.000000, 86.927452
2225.000000, 86.984535
2226.000000, 86.892609
2227.000000, 86.860107
2228.000000, 86.979004
2229.000000, 86.951889
2230.000000, 86.875153
2231.000000, 86.822594
2232.000000, 86.900070
2233.000000, 86.850807
2234.000000, 86.872467
2235.000000, 86.962753
2236.000000, 86.893097
2237.000000, 86.782440
2238.000000, 86.855751
2239.000000, 86.883881
2240.000000, 86.893364
2241.000000, 86.832619
2242.000000, 86.905899
2243.000000, 86.771080
2244.000000, 86.664116
2245.000000, 86.665634
2246.000000, 86.649597
2247.000000, 86.470131
2248.000000, 86.401123
2249.000000, 86.375092
2250.000000, 86.155113
2251.000000, 86.173256
2252.000000, 85.966919
2253.000000, 85.930679
2254.000000, 85.691368
2255.000000, 85.570160
2256.000000, 85.434135
2257.000000, 85.172432
2258.000000, 85.014740
2259.000000, 84.803757
2260.000000, 84.651909
2261.000000, 84.522758
2262.000000, 84.215042
2263.000000, 84.056755
2264.000000, 83.785461
2265.000000, 83.638725
2266.000000, 83.299622
2267.000000, 83.146805
2268.000000, 82.873589
2269.000000, 82.660713
2270.000000, 82.455376
2271.000000, 82.302689
2272.000000, 82.121208
2273.000000, 81.935585
2274.000000, 81.957252
2275.000000, 81.733246
2276.000000, 81.678253
2277.000000, 81.745247
2278.000000, 81.718811
2279.000000, 81.505936
2280.000000, 81.510750
2281.000000, 81.513725
2282.000000, 81.421257
2283.000000, 81.300179
2284.000000, 81.288834
2285.000000, 81.147423
2286.000000, 81.054359
2287.000000, 80.975853
2288.000000, 80.798363
2289.000000, 80.706390
2290.000000, 80.642250
2291.000000, 80.558861
2292.000000, 80.489571
2293.000000, 80.411911
2294.000000, 80.192772
2295.000000, 80.082794
2296.000000, 79.979256
2297.000000, 79.764236
2298.000000, 79.675957
2299.000000, 79.593369
2300.000000, 79.506653
2301.000000, 79.385200
2302.000000, 79.330460
2303.000000, 79.193794
2304.000000, 79.179955
2305.000000, 79.054016
2306.000000, 78.922417
2307.000000, 78.874420
2308.000000, 78.778793
2309.000000, 78.592987
2310.000000, 78.352615
2311.000000, 78.354416
2312.000000, 78.180573
2313.000000, 78.121635
2314.000000, 77.959564
2315.000000, 77.936615
2316.000000, 77.910614
2317.000000, 77.954308
2318.000000, 78.053513
2319.000000, 78.212791
2320.000000, 78.231133
2321.000000, 78.454163
2322.000000, 78.632278
2323.000000, 78.756615
2324.000000, 78.882133
2325.000000, 78.967407
2326.000000, 78.978989
2327.000000, 79.164551
2328.000000, 79.282982
2329.000000, 79.336456
2330.000000, 79.323151
2331.000000, 79.326744
2332.000000, 79.431190
2333.000000, 79.427536
2334.000000, 79.565971
2335.000000, 79.467484
2336.000000, 79.510468
2337.000000, 79.477516
2338.000000, 79.538147
2339.000000, 79.431671
2340.000000, 79.471497
2341.000000, 79.505524
2342.000000, 79.275299
2343.000000, 79.317177
2344.000000, 79.249985
2345.000000, 79.107643
2346.000000, 79.037354
2347.000000, 79.089493
2348.000000, 78.974876
2349.000000, 78.981239
2350.000000, 78.907639
2351.000000, 78.841286
2352.000000, 78.779274
2353.000000, 78.806396
2354.000000, 78.665489
2355.000000, 78.650169
2356.000000, 78.672791
2357.000000, 78.591217
2358.000000, 78.530144
2359.000000, 78.446609
2360.000000, 78.483673
2361.000000, 78.458992
2362.000000, 78.262878
2363.000000, 78.190071
2364.000000, 78.310020
2365.000000, 78.091118
2366.000000, 78.165421
2367.000000, 78.038376
2368.000000, 78.098595
2369.000000, 78.042778
2370.000000, 77.909264
2371.000000, 78.019997
2372.000000, 77.957687
2373.000000, 77.956932
2374.000000, 77.873817
2375.000000, 77.888412
2376.000000, 77.934418
2377.000000, 77.860748
2378.000000, 77.763008
2379.000000, 77.819839
2380.000000, 77.786163
2381.000000, 77.676704
2382.000000, 77.632355
2383.000000, 77.555832
2384.000000, 77.496994
2385.000000, 77.483841
2386.000000, 77.291420
2387.000000, 77.324745
2388.000000, 77.239319
2389.000000, 77.239655
2390.000000, 77.172699
2391.000000, 77.059868
2392.000000, 76.934204
2393.000000, 76.952499
2394.000000, 76.887924
2395.000000, 76.781288
2396.000000, 76.740417
2397.000000, 76.682365
2398.000000, 76.526901
2399.000000, 76.563957
2400.000000, 76.550323
2401.000000, 76.542877
2402.000000, 76.432678
2403.000000, 76.476997
2404.000000, 76.438782
2405.000000, 76.471039
2406.000000, 76.608803
2407.000000, 76.704758
2408.000000, 76.704666
2409.000000, 76.807602
2410.000000, 76.898224
2411.000000, 76.874504
2412.000000, 76.977966
2413.000000, 77.071037
2414.000000, 76.892410
2415.000000, 77.052673
2416.000000, 77.102547
2417.000000, 77.107147
2418.000000, 77.198013
2419.000000, 77.297356
2420.000000, 77.228813
2421.000000, 77.229675
2422.000000, 77.268799
2423.000000, 77.225586
2424.000000, 77.260086
2425.000000, 77.193542
2426.000000, 77.245155
2427.000000, 77.180214
2428.000000, 77.150238
2429.000000, 77.150604
2430.000000, 77.206978
2431.000000, 77.189270
2432.000000, 77.065643
2433.000000, 77.087891
2434.000000, 77.013489
2435.000000, 77.001678
2436.000000, 76.853737
2437.000000, 76.909569
2438.000000, 76.877640
2439.000000, 76.622002
2440.000000, 76.536568
2441.000000, 76.603317
2442.000000, 76.358589
2443.000000, 76.164833
2444.000000, 76.014931
2445.000000, 75.880714
2446.000000, 75.632248
2447.000000, 75.460403
2448.000000, 75.363686
2449.000000, 75.123795
2450.000000, 74.996010
2451.000000, 74.851677
2452.000000, 74.669739
2453.000000, 74.527809
2454.000000, 74.315735
2455.000000, 74.238609
2456.000000, 74.082962
2457.000000, 73.982162
2458.000000, 73.659958
2459.000000, 73.612579
2460.000000, 73.651672
2461.000000, 73.549820
2462.000000, 73.625443
2463.000000, 73.800186
2464.000000, 73.826248
2465.000000, 73.921646
2466.000000, 74.274391
2467.000000, 74.413353
2468.000000, 74.648964
2469.000000, 74.943253
2470.000000, 75.169113
2471.000000, 75.406082
2472.000000, 75.451157
2473.000000, 75.718094
2474.000000, 76.001755
2475.000000, 76.284401
2476.000000, 76.406570
2477.000000, 76.581177
2478.000000, 76.639214
2479.000000, 76.903687
2480.000000, 76.964897
2481.000000, 77.054901
2482.000000, 77.201630
2483.000000, 77.240295
2484.000000, 77.094063
2485.000000, 77.320122
2486.000000, 77.243599
2487.000000, 77.300659
2488.000000, 77.276657
2489.000000, 77.290192
2490.000000, 77.326279
2491.000000, 77.309006
2492.000000, 77.404228
2493.000000, 77.398003
2494.000000, 77.372162
2495.000000, 77.441116
2496.000000, 77.488419
2497.000000, 77.451683
2498.000000, 77.404526
2499.000000, 77.516312
2500.000000, 77.422928
2501.000000, 77.318596
2502.000000, 77.542030
2503.000000, 77.440277
2504.000000, 77.409355
2505.000000, 77.389221
2506.000000, 77.408096
2507.000000, 77.486687
2508.000000, 77.468307
2509.000000, 77.450890
2510.000000, 77.438820
2511.000000, 77.374191
2512.000000, 77.462883
2513.000000, 77.548798
2514.000000, 77.533005
2515.000000, 77.609413
2516.000000, 77.711685
2517.000000, 77.813049
2518.000000, 77.961060
2519.000000, 78.087357
2520.000000, 78.157288
2521.000000, 78.106728
2522.000000, 78.318756
2523.000000, 78.467682
2524.000000, 78.491119
2525.000000, 78.616150
2526.000000, 78.708199
2527.000000, 78.800552
2528.000000, 78.901962
2529.000000, 78.940460
2530.000000, 79.121086
2531.000000, 79.197983
2532.000000, 79.361130
2533.000000, 79.331573
2534.000000, 79.403114
2535.000000, 79.474190
2536.000000, 79.676567
2537.000000, 79.641396
2538.000000, 79.755875
2539.000000, 79.748917
2540.000000, 79.713226
2541.000000, 79.847336
2542.000000, 79.840065
2543.000000, 79.856056
2544.000000, 79.830276
2545.000000, 79.920036
2546.000000, 80.010399
2547.000000, 79.963478
2548.000000, 79.927460
2549.000000, 80.027969
2550.000000, 80.104103
2551.000000, 80.076965
2552.000000, 80.022545
2553.000000, 80.161835
2554.000000, 80.074715
2555.000000, 80.138161
2556.000000, 80.119148
2557.000000, 80.142113
2558.000000, 80.093018
2559.000000, 80.202408
2560.000000, 80.248764
2561.000000, 80.234116
2562.000000, 80.329765
2563.000000, 80.302826
2564.000000, 80.432648
2565.000000, 80.218994
2566.000000, 80.466141
2567.000000, 80.477264
2568.000000, 80.480263
2569.000000, 80.517197
2570.000000, 80.497398
2571.000000, 80.552353
2572.000000, 80.594933
2573.000000, 80.569061
2574.000000, 80.738808
2575.000000, 80.634781
2576.000000, 80.766716
2577.000000, 80.721161
2578.000000, 80.708160
2579.000000, 80.684402
2580.000000, 80.828148
2581.000000, 80.967918
2582.000000, 80.910507
2583.000000, 81.000778
2584.000000, 81.136856
2585.000000, 81.176575
2586.000000, 81.175591
2587.000000, 81.327156
2588.000000, 81.443428
2589.000000, 81.552002
2590.000000, 81.624374
2591.000000, 81.611237
2592.000000, 81.746208
2593.000000, 81.779190
2594.000000, 81.974808
2595.000000, 81.992516
2596.000000, 82.094276
2597.000000, 82.084251
2598.000000, 82.254829
2599.000000, 82.202568
2600.000000, 82.198586
