# Wavelength  (nm), Transmission (%)
200.000000, -0.000017
201.000000, -0.000013
202.000000, -0.000022
203.000000, 0.000004
204.000000, -0.000012
205.000000, -0.000006
206.000000, -0.000013
207.000000, 0.000003
208.000000, -0.000004
209.000000, -0.000007
210.000000, -0.000000
211.000000, -0.000009
212.000000, 0.000000
213.000000, 0.000003
214.000000, -0.000014
215.000000, 0.000001
216.000000, -0.000006
217.000000, 0.000006
218.000000, 0.000007
219.000000, -0.000010
220.000000, 0.000005
221.000000, 0.000005
222.000000, -0.000009
223.000000, 0.000004
224.000000, 0.000004
225.000000, -0.000007
226.000000, 0.000009
227.000000, -0.000002
228.000000, -0.000001
229.000000, 0.000008
230.000000, 0.000006
231.000000, 0.000006
232.000000, 0.000002
233.000000, -0.000000
234.000000, 0.000004
235.000000, 0.000010
236.000000, 0.000003
237.000000, 0.000010
238.000000, 0.000016
239.000000, 0.000005
240.000000, 0.000004
241.000000, 0.000002
242.000000, 0.000002
243.000000, 0.000015
244.000000, 0.000008
245.000000, 0.000006
246.000000, 0.000016
247.000000, -0.000001
248.000000, 0.000005
249.000000, 0.000001
250.000000, 0.000017
251.000000, 0.000005
252.000000, 0.000007
253.000000, 0.000002
254.000000, 0.000001
255.000000, 0.000006
256.000000, 0.000002
257.000000, 0.000004
258.000000, 0.000005
259.000000, 0.000016
260.000000, 0.000003
261.000000, 0.000004
262.000000, 0.000006
263.000000, 0.000004
264.000000, 0.000021
265.000000, 0.000001
266.000000, 0.000001
267.000000, 0.000017
268.000000, 0.000003
269.000000, 0.000006
270.000000, 0.000010
271.000000, 0.000003
272.000000, 0.000006
273.000000, 0.000014
274.000000, 0.000006
275.000000, 0.000008
276.000000, 0.000012
277.000000, 0.000007
278.000000, 0.000004
279.000000, 0.000004
280.000000, 0.000022
281.000000, 0.000007
282.000000, 0.000007
283.000000, 0.000022
284.000000, 0.000003
285.000000, 0.000003
286.000000, 0.000019
287.000000, 0.000001
288.000000, 0.000008
289.000000, 0.000015
290.000000, 0.000009
291.000000, 0.000023
292.000000, 0.000002
293.000000, 0.000005
294.000000, 0.000021
295.000000, 0.000012
296.000000, 0.000004
297.000000, 0.000018
298.000000, 0.000008
299.000000, 0.000011
300.000000, 0.000009
301.000000, 0.000008
302.000000, 0.000023
303.000000, 0.000009
304.000000, 0.000019
305.000000, -0.000001
306.000000, -0.000000
307.000000, 0.000007
308.000000, 0.000003
309.000000, 0.000013
310.000000, 0.000005
311.000000, 0.000002
312.000000, 0.000009
313.000000, 0.000008
314.000000, 0.000009
315.000000, 0.000016
316.000000, 0.000004
317.000000, 0.000005
318.000000, 0.000012
319.000000, 0.000005
320.000000, 0.000015
321.000000, -0.000005
322.000000, 0.000018
323.000000, 0.000011
324.000000, -0.000001
325.000000, 0.000024
326.000000, 0.000006
327.000000, 0.000011
328.000000, 0.000009
329.000000, 0.000019
330.000000, 0.000012
331.000000, 0.000009
332.000000, 0.000016
333.000000, 0.000002
334.000000, 0.000003
335.000000, 0.000012
336.000000, 0.000020
337.000000, -0.000005
338.000000, 0.000009
339.000000, 0.000004
340.000000, -0.000004
341.000000, 0.000012
342.000000, 0.000009
343.000000, 0.000008
344.000000, -0.000000
345.000000, 0.000004
346.000000, -0.000000
347.000000, 0.000001
348.000000, 0.000004
349.000000, -0.000128
350.000000, -0.000016
351.000000, 0.000013
352.000000, 0.000001
353.000000, -0.000011
354.000000, 0.000003
355.000000, -0.000011
356.000000, -0.000002
357.000000, 0.000001
358.000000, -0.000018
359.000000, 0.000005
360.000000, -0.000016
361.000000, 0.000003
362.000000, 0.000007
363.000000, -0.000005
364.000000, 0.000005
365.000000, 0.000002
366.000000, -0.000001
367.000000, -0.000011
368.000000, -0.000002
369.000000, -0.000003
370.000000, -0.000001
371.000000, -0.000009
372.000000, -0.000001
373.000000, 0.000000
374.000000, 0.000002
375.000000, 0.000010
376.000000, -0.000001
377.000000, -0.000009
378.000000, -0.000000
379.000000, 0.000002
380.000000, 0.000006
381.000000, 0.000002
382.000000, -0.000001
383.000000, -0.000007
384.000000, 0.000004
385.000000, 0.000001
386.000000, 0.000006
387.000000, 0.000002
388.000000, -0.000004
389.000000, 0.000005
390.000000, 0.000011
391.000000, 0.000009
392.000000, 0.000005
393.000000, 0.000003
394.000000, -0.000009
395.000000, 0.000001
396.000000, 0.000008
397.000000, 0.000007
398.000000, 0.000003
399.000000, -0.000002
400.000000, 0.000009
401.000000, 0.000006
402.000000, 0.000009
403.000000, 0.000017
404.000000, -0.000003
405.000000, 0.000005
406.000000, 0.000011
407.000000, 0.000012
408.000000, 0.000007
409.000000, -0.000005
410.000000, 0.000008
411.000000, 0.000004
412.000000, 0.000013
413.000000, 0.000005
414.000000, 0.000009
415.000000, 0.000005
416.000000, 0.000010
417.000000, 0.000000
418.000000, 0.000004
419.000000, 0.000005
420.000000, 0.000001
421.000000, 0.000008
422.000000, 0.000011
423.000000, 0.000011
424.000000, -0.000007
425.000000, 0.000009
426.000000, 0.000010
427.000000, -0.000006
428.000000, 0.000011
429.000000, 0.000011
430.000000, 0.000016
431.000000, -0.000001
432.000000, 0.000007
433.000000, 0.000011
434.000000, 0.000004
435.000000, -0.000002
436.000000, 0.000016
437.000000, 0.000008
438.000000, 0.000009
439.000000, 0.000008
440.000000, 0.000006
441.000000, -0.000004
442.000000, 0.000010
443.000000, 0.000004
444.000000, 0.000003
445.000000, 0.000005
446.000000, 0.000011
447.000000, 0.000006
448.000000, -0.000008
449.000000, 0.000008
450.000000, 0.000004
451.000000, 0.000005
452.000000, 0.000001
453.000000, 0.000000
454.000000, 0.000015
455.000000, 0.000009
456.000000, 0.000009
457.000000, 0.000008
458.000000, 0.000003
459.000000, 0.000003
460.000000, 0.000001
461.000000, -0.000001
462.000000, 0.000002
463.000000, 0.000006
464.000000, 0.000001
465.000000, 0.000000
466.000000, 0.000004
467.000000, 0.000005
468.000000, 0.000004
469.000000, 0.000006
470.000000, 0.000006
471.000000, 0.000006
472.000000, 0.000004
473.000000, -0.000004
474.000000, -0.000003
475.000000, 0.000006
476.000000, 0.000007
477.000000, 0.000002
478.000000, 0.000001
479.000000, 0.000003
480.000000, 0.000007
481.000000, -0.000001
482.000000, 0.000005
483.000000, 0.000005
484.000000, 0.000000
485.000000, 0.000003
486.000000, 0.000000
487.000000, 0.000005
488.000000, 0.000003
489.000000, -0.000005
490.000000, -0.000003
491.000000, 0.000003
492.000000, -0.000002
493.000000, 0.000002
494.000000, 0.000009
495.000000, -0.000001
496.000000, 0.000000
497.000000, -0.000000
498.000000, 0.000001
499.000000, -0.000001
500.000000, 0.000001
501.000000, 0.000003
502.000000, 0.000002
503.000000, -0.000002
504.000000, 0.000003
505.000000, 0.000002
506.000000, 0.000008
507.000000, -0.000003
508.000000, 0.000002
509.000000, 0.000001
510.000000, -0.000000
511.000000, 0.000005
512.000000, -0.000000
513.000000, -0.000004
514.000000, 0.000003
515.000000, -0.000000
516.000000, -0.000005
517.000000, -0.000004
518.000000, 0.000005
519.000000, 0.000003
520.000000, 0.000003
521.000000, 0.000002
522.000000, 0.000005
523.000000, 0.000010
524.000000, 0.000009
525.000000, 0.000000
526.000000, 0.000001
527.000000, 0.000004
528.000000, 0.000001
529.000000, 0.000002
530.000000, 0.000006
531.000000, 0.000005
532.000000, 0.000001
533.000000, 0.000002
534.000000, 0.000005
535.000000, 0.000004
536.000000, 0.000011
537.000000, 0.000002
538.000000, 0.000011
539.000000, 0.000010
540.000000, 0.000005
541.000000, 0.000005
542.000000, 0.000023
543.000000, 0.000006
544.000000, 0.000011
545.000000, 0.000009
546.000000, 0.000010
547.000000, 0.000016
548.000000, 0.000019
549.000000, 0.000022
550.000000, 0.000023
551.000000, 0.000031
552.000000, 0.000031
553.000000, 0.000030
554.000000, 0.000038
555.000000, 0.000044
556.000000, 0.000043
557.000000, 0.000057
558.000000, 0.000052
559.000000, 0.000048
560.000000, 0.000041
561.000000, 0.000049
562.000000, 0.000034
563.000000, 0.000036
564.000000, 0.000047
565.000000, 0.000048
566.000000, 0.000061
567.000000, 0.000068
568.000000, 0.000091
569.000000, 0.000093
570.000000, 0.000096
571.000000, 0.000091
572.000000, 0.000095
573.000000, 0.000075
574.000000, 0.000074
575.000000, 0.000073
576.000000, 0.000073
577.000000, 0.000080
578.000000, 0.000086
579.000000, 0.000104
580.000000, 0.000108
581.000000, 0.000150
582.000000, 0.000187
583.000000, 0.000200
584.000000, 0.000195
585.000000, 0.000192
586.000000, 0.000170
587.000000, 0.000143
588.000000, 0.000127
589.000000, 0.000130
590.000000, 0.000118
591.000000, 0.000128
592.000000, 0.000157
593.000000, 0.000163
594.000000, 0.000208
595.000000, 0.000249
596.000000, 0.000315
597.000000, 0.000366
598.000000, 0.000396
599.000000, 0.000397
600.000000, 0.000366
601.000000, 0.000306
602.000000, 0.000271
603.000000, 0.000242
604.000000, 0.000220
605.000000, 0.000210
606.000000, 0.000208
607.000000, 0.000221
608.000000, 0.000257
609.000000, 0.000296
610.000000, 0.000351
611.000000, 0.000434
612.000000, 0.000569
613.000000, 0.000716
614.000000, 0.000832
615.000000, 0.000907
616.000000, 0.000887
617.000000, 0.000817
618.000000, 0.000730
619.000000, 0.000630
620.000000, 0.000573
621.000000, 0.000546
622.000000, 0.000539
623.000000, 0.000553
624.000000, 0.000611
625.000000, 0.000670
626.000000, 0.000795
627.000000, 0.000971
628.000000, 0.001208
629.000000, 0.001460
630.000000, 0.001714
631.000000, 0.001825
632.000000, 0.001785
633.000000, 0.001621
634.000000, 0.001412
635.000000, 0.001214
636.000000, 0.001091
637.000000, 0.000989
638.000000, 0.000945
639.000000, 0.000926
640.000000, 0.000960
641.000000, 0.001048
642.000000, 0.001174
643.000000, 0.001387
644.000000, 0.001714
645.000000, 0.002145
646.000000, 0.002696
647.000000, 0.003292
648.000000, 0.003660
649.000000, 0.003686
650.000000, 0.003370
651.000000, 0.002879
652.000000, 0.002402
653.000000, 0.002019
654.000000, 0.001732
655.000000, 0.001559
656.000000, 0.001449
657.000000, 0.001425
658.000000, 0.001446
659.000000, 0.001534
660.000000, 0.001713
661.000000, 0.001964
662.000000, 0.002380
663.000000, 0.002965
664.000000, 0.003859
665.000000, 0.005064
666.000000, 0.006448
667.000000, 0.007546
668.000000, 0.007844
669.000000, 0.007244
670.000000, 0.006146
671.000000, 0.005002
672.000000, 0.004104
673.000000, 0.003473
674.000000, 0.003073
675.000000, 0.002822
676.000000, 0.002709
677.000000, 0.002719
678.000000, 0.002851
679.000000, 0.003105
680.000000, 0.003567
681.000000, 0.004284
682.000000, 0.005389
683.000000, 0.007103
684.000000, 0.009610
685.000000, 0.012637
686.000000, 0.015205
687.000000, 0.015598
688.000000, 0.013689
689.000000, 0.010781
690.000000, 0.008106
691.000000, 0.006235
692.000000, 0.004939
693.000000, 0.004090
694.000000, 0.003564
695.000000, 0.003251
696.000000, 0.003076
697.000000, 0.002994
698.000000, 0.003091
699.000000, 0.003281
700.000000, 0.003597
701.000000, 0.004183
702.000000, 0.005077
703.000000, 0.006527
704.000000, 0.008970
705.000000, 0.013060
706.000000, 0.019574
707.000000, 0.027393
708.000000, 0.032150
709.000000, 0.029568
710.000000, 0.022319
711.000000, 0.015211
712.000000, 0.010529
713.000000, 0.007669
714.000000, 0.005979
715.000000, 0.004903
716.000000, 0.004211
717.000000, 0.003780
718.000000, 0.003539
719.000000, 0.003411
720.000000, 0.003426
721.000000, 0.003578
722.000000, 0.003840
723.000000, 0.004287
724.000000, 0.005006
725.000000, 0.006077
726.000000, 0.007746
727.000000, 0.010682
728.000000, 0.015813
729.000000, 0.025340
730.000000, 0.041673
731.000000, 0.060036
732.000000, 0.066033
733.000000, 0.053782
734.000000, 0.035593
735.000000, 0.022566
736.000000, 0.015206
737.000000, 0.011169
738.000000, 0.008738
739.000000, 0.007327
740.000000, 0.006416
741.000000, 0.005886
742.000000, 0.005603
743.000000, 0.005528
744.000000, 0.005695
745.000000, 0.006118
746.000000, 0.006729
747.000000, 0.007866
748.000000, 0.009679
749.000000, 0.012592
750.000000, 0.017840
751.000000, 0.028544
752.000000, 0.052695
753.000000, 0.101650
754.000000, 0.156489
755.000000, 0.157271
756.000000, 0.102585
757.000000, 0.052571
758.000000, 0.028881
759.000000, 0.018224
760.000000, 0.012848
761.000000, 0.009851
762.000000, 0.008085
763.000000, 0.006938
764.000000, 0.006228
765.000000, 0.005875
766.000000, 0.005616
767.000000, 0.005689
768.000000, 0.005967
769.000000, 0.006433
770.000000, 0.007242
771.000000, 0.008566
772.000000, 0.010741
773.000000, 0.014725
774.000000, 0.022541
775.000000, 0.041732
776.000000, 0.097213
777.000000, 0.207499
778.000000, 0.266256
779.000000, 0.184502
780.000000, 0.077457
781.000000, 0.032499
782.000000, 0.017482
783.000000, 0.011145
784.000000, 0.007911
785.000000, 0.006015
786.000000, 0.004925
787.000000, 0.004102
788.000000, 0.003527
789.000000, 0.003241
790.000000, 0.003013
791.000000, 0.002870
792.000000, 0.002795
793.000000, 0.002853
794.000000, 0.002903
795.000000, 0.003054
796.000000, 0.003294
797.000000, 0.003637
798.000000, 0.004196
799.000000, 0.004886
800.000000, 0.129225
801.000000, 0.140631
802.000000, 0.155947
803.000000, 0.174435
804.000000, 0.196283
805.000000, 0.218912
806.000000, 0.240138
807.000000, 0.262000
808.000000, 0.281779
809.000000, 0.296936
810.000000, 0.307447
811.000000, 0.314076
812.000000, 0.317856
813.000000, 0.319682
814.000000, 0.320127
815.000000, 0.320728
816.000000, 0.320168
817.000000, 0.320039
818.000000, 0.318698
819.000000, 0.318541
820.000000, 0.316459
821.000000, 0.313785
822.000000, 0.305035
823.000000, 0.290291
824.000000, 0.271798
825.000000, 0.251416
826.000000, 0.228846
827.000000, 0.207040
828.000000, 0.185448
829.000000, 0.164159
830.000000, 0.143960
831.000000, 0.128701
832.000000, 0.115322
833.000000, 0.102286
834.000000, 0.089510
835.000000, 0.077502
836.000000, 0.065932
837.000000, 0.054575
838.000000, 0.043878
839.000000, 0.033760
840.000000, 0.023954
841.000000, 0.015032
842.000000, 0.006452
843.000000, 0.001150
844.000000, 0.000520
845.000000, 0.000292
846.000000, 0.000065
847.000000, 0.000274
848.000000, 0.000010
849.000000, 0.000130
850.000000, 0.000059
851.000000, 0.000202
852.000000, 0.000122
853.000000, 0.000200
854.000000, 0.000290
855.000000, 0.000186
856.000000, 0.000137
857.000000, 0.000006
858.000000, 0.000177
859.000000, 0.000106
860.000000, 0.000180
861.000000, 0.000193
862.000000, 0.000012
863.000000, 0.000206
864.000000, 0.000191
865.000000, 0.000016
866.000000, 0.000177
867.000000, 0.000231
868.000000, 0.000246
869.000000, 0.000200
870.000000, 0.000202
871.000000, 0.000217
872.000000, 0.000194
873.000000, 0.000245
874.000000, 0.000156
875.000000, 0.000266
876.000000, 0.000170
877.000000, 0.000183
878.000000, 0.000241
879.000000, 0.000268
880.000000, 0.000247
881.000000, 0.000215
882.000000, 0.000249
883.000000, 0.000305
884.000000, 0.000278
885.000000, 0.000209
886.000000, 0.000272
887.000000, 0.000163
888.000000, 0.000101
889.000000, 0.000215
890.000000, 0.000243
891.000000, 0.000198
892.000000, 0.000219
893.000000, 0.000170
894.000000, 0.000220
895.000000, 0.000113
896.000000, 0.000230
897.000000, 0.000202
898.000000, 0.000251
899.000000, 0.000229
900.000000, 0.000224
901.000000, 0.000226
902.000000, 0.000264
903.000000, 0.000240
904.000000, 0.000218
905.000000, 0.000198
906.000000, 0.000270
907.000000, 0.000198
908.000000, 0.000290
909.000000, 0.000139
910.000000, 0.000204
911.000000, 0.000280
912.000000, 0.000228
913.000000, 0.000247
914.000000, 0.000245
915.000000, 0.000158
916.000000, 0.000256
917.000000, 0.000177
918.000000, 0.000221
919.000000, 0.000159
920.000000, 0.000233
921.000000, 0.000285
922.000000, 0.000217
923.000000, 0.000179
924.000000, 0.000214
925.000000, 0.000146
926.000000, 0.000227
927.000000, 0.000285
928.000000, 0.000125
929.000000, 0.000242
930.000000, 0.000194
931.000000, 0.000131
932.000000, 0.000325
933.000000, 0.000196
934.000000, 0.000232
935.000000, 0.000179
936.000000, 0.000226
937.000000, 0.000123
938.000000, 0.000191
939.000000, 0.000154
940.000000, 0.000182
941.000000, 0.000193
942.000000, 0.000186
943.000000, 0.000302
944.000000, 0.000158
945.000000, 0.000186
946.000000, 0.000173
947.000000, 0.000183
948.000000, 0.000240
949.000000, 0.000194
950.000000, 0.000225
951.000000, 0.000266
952.000000, 0.000275
953.000000, 0.000146
954.000000, 0.000242
955.000000, 0.000203
956.000000, 0.000165
957.000000, 0.000214
958.000000, 0.000222
959.000000, 0.000230
960.000000, 0.000184
961.000000, 0.000214
962.000000, 0.000310
963.000000, 0.000227
964.000000, 0.000211
965.000000, 0.000237
966.000000, 0.000238
967.000000, 0.000210
968.000000, 0.000216
969.000000, 0.000263
970.000000, 0.000185
971.000000, 0.000300
972.000000, 0.000249
973.000000, 0.000139
974.000000, 0.000244
975.000000, 0.000206
976.000000, 0.000138
977.000000, 0.000220
978.000000, 0.000244
979.000000, 0.000272
980.000000, 0.000212
981.000000, 0.000264
982.000000, 0.000215
983.000000, 0.000244
984.000000, 0.000186
985.000000, 0.000223
986.000000, 0.000202
987.000000, 0.000172
988.000000, 0.000271
989.000000, 0.000240
990.000000, 0.000211
991.000000, 0.000215
992.000000, 0.000205
993.000000, 0.000288
994.000000, 0.000272
995.000000, 0.000222
996.000000, 0.000156
997.000000, 0.000199
998.000000, 0.000256
999.000000, 0.000267
1000.000000, 0.000255
1001.000000, 0.000200
1002.000000, 0.000195
1003.000000, 0.000242
1004.000000, 0.000167
1005.000000, 0.000236
1006.000000, 0.000229
1007.000000, 0.000238
1008.000000, 0.000254
1009.000000, 0.000287
1010.000000, 0.000193
1011.000000, 0.000188
1012.000000, 0.000171
1013.000000, 0.000289
1014.000000, 0.000196
1015.000000, 0.000247
1016.000000, 0.000232
1017.000000, 0.000222
1018.000000, 0.000227
1019.000000, 0.000244
1020.000000, 0.000257
1021.000000, 0.000239
1022.000000, 0.000226
1023.000000, 0.000247
1024.000000, 0.000315
1025.000000, 0.000248
1026.000000, 0.000223
1027.000000, 0.000282
1028.000000, 0.000221
1029.000000, 0.000221
1030.000000, 0.000223
1031.000000, 0.000244
1032.000000, 0.000255
1033.000000, 0.000251
1034.000000, 0.000242
1035.000000, 0.000279
1036.000000, 0.000268
1037.000000, 0.000205
1038.000000, 0.000332
1039.000000, 0.000290
1040.000000, 0.000220
1041.000000, 0.000213
1042.000000, 0.000355
1043.000000, 0.000267
1044.000000, 0.000306
1045.000000, 0.000297
1046.000000, 0.000292
1047.000000, 0.000281
1048.000000, 0.000313
1049.000000, 0.000293
1050.000000, 0.000386
1051.000000, 0.000326
1052.000000, 0.000417
1053.000000, 0.000349
1054.000000, 0.000437
1055.000000, 0.000454
1056.000000, 0.000526
1057.000000, 0.000483
1058.000000, 0.000518
1059.000000, 0.000492
1060.000000, 0.000645
1061.000000, 0.000674
1062.000000, 0.000641
1063.000000, 0.000760
1064.000000, 0.000691
1065.000000, 0.000877
1066.000000, 0.000994
1067.000000, 0.000980
1068.000000, 0.001220
1069.000000, 0.001270
1070.000000, 0.001415
1071.000000, 0.001647
1072.000000, 0.001728
1073.000000, 0.001885
1074.000000, 0.002235
1075.000000, 0.002382
1076.000000, 0.002665
1077.000000, 0.002945
1078.000000, 0.003323
1079.000000, 0.003754
1080.000000, 0.004225
1081.000000, 0.004784
1082.000000, 0.005465
1083.000000, 0.006134
1084.000000, 0.007068
1085.000000, 0.008099
1086.000000, 0.009173
1087.000000, 0.010477
1088.000000, 0.012049
1089.000000, 0.013880
1090.000000, 0.015958
1091.000000, 0.018364
1092.000000, 0.021328
1093.000000, 0.024600
1094.000000, 0.028539
1095.000000, 0.033141
1096.000000, 0.038773
1097.000000, 0.045503
1098.000000, 0.053136
1099.000000, 0.062066
1100.000000, 0.072557
1101.000000, 0.084905
1102.000000, 0.099870
1103.000000, 0.117646
1104.000000, 0.139392
1105.000000, 0.164202
1106.000000, 0.194530
1107.000000, 0.230275
1108.000000, 0.273234
1109.000000, 0.325936
1110.000000, 0.390558
1111.000000, 0.465716
1112.000000, 0.556153
1113.000000, 0.668350
1114.000000, 0.797529
1115.000000, 0.958686
1116.000000, 1.148829
1117.000000, 1.382926
1118.000000, 1.673741
1119.000000, 2.019037
1120.000000, 2.441853
1121.000000, 2.936009
1122.000000, 3.495406
1123.000000, 4.137119
1124.000000, 4.902516
1125.000000, 5.863500
1126.000000, 7.006709
1127.000000, 8.366398
1128.000000, 10.067625
1129.000000, 12.151161
1130.000000, 14.485107
1131.000000, 17.325554
1132.000000, 20.607136
1133.000000, 24.179947
1134.000000, 28.445005
1135.000000, 33.239536
1136.000000, 38.262962
1137.000000, 43.635059
1138.000000, 49.119698
1139.000000, 54.538979
1140.000000, 59.700142
1141.000000, 64.892586
1142.000000, 69.673164
1143.000000, 73.536125
1144.000000, 77.092972
1145.000000, 80.032722
1146.000000, 82.594887
1147.000000, 84.530075
1148.000000, 85.992592
1149.000000, 87.152840
1150.000000, 87.914406
1151.000000, 88.681236
1152.000000, 88.932625
1153.000000, 89.165932
1154.000000, 89.347923
1155.000000, 89.285828
1156.000000, 89.076096
1157.000000, 89.078415
1158.000000, 88.685272
1159.000000, 88.521980
1160.000000, 88.303749
1161.000000, 87.995514
1162.000000, 87.766762
1163.000000, 87.456772
1164.000000, 87.154617
1165.000000, 86.915741
1166.000000, 86.687241
1167.000000, 86.513153
1168.000000, 86.194290
1169.000000, 85.881943
1170.000000, 85.700691
1171.000000, 85.656113
1172.000000, 85.367287
1173.000000, 85.260040
1174.000000, 85.128555
1175.000000, 84.806267
1176.000000, 84.813881
1177.000000, 84.813591
1178.000000, 84.639366
1179.000000, 84.681351
1180.000000, 84.598038
1181.000000, 84.647240
1182.000000, 84.567154
1183.000000, 84.639847
1184.000000, 84.701126
1185.000000, 84.696953
1186.000000, 84.737793
1187.000000, 84.842209
1188.000000, 84.893440
1189.000000, 85.053131
1190.000000, 85.185280
1191.000000, 85.303070
1192.000000, 85.504013
1193.000000, 85.692940
1194.000000, 85.790733
1195.000000, 85.964142
1196.000000, 86.143120
1197.000000, 86.325089
1198.000000, 86.474289
1199.000000, 86.698685
1200.000000, 86.858810
1201.000000, 87.032585
1202.000000, 87.214325
1203.000000, 87.240265
1204.000000, 87.515114
1205.000000, 87.697403
1206.000000, 87.837616
1207.000000, 87.870636
1208.000000, 88.013641
1209.000000, 88.089386
1210.000000, 88.133217
1211.000000, 88.247849
1212.000000, 88.355309
1213.000000, 88.479012
1214.000000, 88.415565
1215.000000, 88.487915
1216.000000, 88.574951
1217.000000, 88.577240
1218.000000, 88.601387
1219.000000, 88.657722
1220.000000, 88.771286
1221.000000, 88.782219
1222.000000, 88.870453
1223.000000, 88.703575
1224.000000, 88.779930
1225.000000, 88.840431
1226.000000, 88.765106
1227.000000, 88.860794
1228.000000, 88.878265
1229.000000, 88.835152
1230.000000, 88.956490
1231.000000, 88.955521
1232.000000, 88.913811
1233.000000, 88.899765
1234.000000, 88.967880
1235.000000, 88.890259
1236.000000, 88.976067
1237.000000, 89.048645
1238.000000, 89.086098
1239.000000, 89.074745
1240.000000, 89.061966
1241.000000, 89.245926
1242.000000, 89.149307
1243.000000, 89.185776
1244.000000, 89.197700
1245.000000, 89.105103
1246.000000, 89.214935
1247.000000, 89.244972
1248.000000, 89.266273
1249.000000, 89.280685
1250.000000, 89.291801
1251.000000, 89.334236
1252.000000, 89.219170
1253.000000, 89.279732
1254.000000, 89.357033
1255.000000, 89.220032
1256.000000, 89.293388
1257.000000, 89.266930
1258.000000, 89.305138
1259.000000, 89.252335
1260.000000, 89.249077
1261.000000, 89.129456
1262.000000, 89.213989
1263.000000, 88.959923
1264.000000, 88.972229
1265.000000, 89.016762
1266.000000, 88.857040
1267.000000, 88.885292
1268.000000, 88.832405
1269.000000, 88.683769
1270.000000, 88.567627
1271.000000, 88.625824
1272.000000, 88.521019
1273.000000, 88.461243
1274.000000, 88.403656
1275.000000, 88.257629
1276.000000, 88.234673
1277.000000, 88.169273
1278.000000, 88.159325
1279.000000, 88.057487
1280.000000, 88.097809
1281.000000, 87.944572
1282.000000, 87.917748
1283.000000, 87.880547
1284.000000, 87.848228
1285.000000, 87.811890
1286.000000, 87.741158
1287.000000, 87.813698
1288.000000, 87.744514
1289.000000, 87.772171
1290.000000, 87.717903
1291.000000, 87.733307
1292.000000, 87.696487
1293.000000, 87.726303
1294.000000, 87.696388
1295.000000, 87.653824
1296.000000, 87.720696
1297.000000, 87.807068
1298.000000, 87.797508
1299.000000, 87.822815
1300.000000, 87.902054
1301.000000, 87.800011
1302.000000, 87.973312
1303.000000, 87.926979
1304.000000, 88.005867
1305.000000, 88.087349
1306.000000, 88.037666
1307.000000, 88.115150
1308.000000, 88.151932
1309.000000, 88.197044
1310.000000, 88.271667
1311.000000, 88.373306
1312.000000, 88.364601
1313.000000, 88.348465
1314.000000, 88.465935
1315.000000, 88.433105
1316.000000, 88.517509
1317.000000, 88.490906
1318.000000, 88.580544
1319.000000, 88.535683
1320.000000, 88.579994
1321.000000, 88.609390
1322.000000, 88.579788
1323.000000, 88.579041
1324.000000, 88.668449
1325.000000, 88.627174
1326.000000, 88.631058
1327.000000, 88.664124
1328.000000, 88.660904
1329.000000, 88.718941
1330.000000, 88.651657
1331.000000, 88.496536
1332.000000, 88.493362
1333.000000, 88.545364
1334.000000, 88.551910
1335.000000, 88.466248
1336.000000, 88.559357
1337.000000, 88.349083
1338.000000, 88.356888
1339.000000, 88.225464
1340.000000, 88.311707
1341.000000, 88.296265
1342.000000, 88.172310
1343.000000, 88.093239
1344.000000, 88.106071
1345.000000, 88.021309
1346.000000, 88.024124
1347.000000, 88.100868
1348.000000, 87.798111
1349.000000, 87.890778
1350.000000, 87.798203
1351.000000, 87.763985
1352.000000, 87.632332
1353.000000, 87.641464
1354.000000, 87.670395
1355.000000, 87.559799
1356.000000, 87.477486
1357.000000, 87.496742
1358.000000, 87.437843
1359.000000, 87.464890
1360.000000, 87.523430
1361.000000, 87.412483
1362.000000, 87.417351
1363.000000, 87.492599
1364.000000, 87.405258
1365.000000, 87.545486
1366.000000, 87.457047
1367.000000, 87.413513
1368.000000, 87.527634
1369.000000, 87.485596
1370.000000, 87.540977
1371.000000, 87.578239
1372.000000, 87.450478
1373.000000, 87.544678
1374.000000, 87.621384
1375.000000, 87.606705
1376.000000, 87.584648
1377.000000, 87.667671
1378.000000, 87.669983
1379.000000, 87.677757
1380.000000, 87.883156
1381.000000, 87.884712
1382.000000, 87.884491
1383.000000, 88.016457
1384.000000, 87.986954
1385.000000, 88.098831
1386.000000, 88.007484
1387.000000, 88.166359
1388.000000, 88.183373
1389.000000, 88.146698
1390.000000, 88.261780
1391.000000, 88.335854
1392.000000, 88.279167
1393.000000, 88.287704
1394.000000, 88.401901
1395.000000, 88.435989
1396.000000, 88.285774
1397.000000, 88.372841
1398.000000, 88.337929
1399.000000, 88.471191
1400.000000, 88.560867
1401.000000, 88.540848
1402.000000, 88.409225
1403.000000, 88.376923
1404.000000, 88.466843
1405.000000, 88.417610
1406.000000, 88.418098
1407.000000, 88.345398
1408.000000, 88.375076
1409.000000, 88.378922
1410.000000, 88.263374
1411.000000, 88.090027
1412.000000, 88.045189
1413.000000, 87.982727
1414.000000, 88.070335
1415.000000, 87.878952
1416.000000, 87.660973
1417.000000, 87.583221
1418.000000, 87.579567
1419.000000, 87.286591
1420.000000, 87.313416
1421.000000, 87.220398
1422.000000, 86.927834
1423.000000, 86.850288
1424.000000, 86.738121
1425.000000, 86.737648
1426.000000, 86.648491
1427.000000, 86.440125
1428.000000, 86.428474
1429.000000, 86.408943
1430.000000, 86.323982
1431.000000, 86.311859
1432.000000, 86.277405
1433.000000, 86.329338
1434.000000, 86.270744
1435.000000, 86.345810
1436.000000, 86.318619
1437.000000, 86.281715
1438.000000, 86.352554
1439.000000, 86.372826
1440.000000, 86.350784
1441.000000, 86.340332
1442.000000, 86.401581
1443.000000, 86.425674
1444.000000, 86.374840
1445.000000, 86.531616
1446.000000, 86.355446
1447.000000, 86.530014
1448.000000, 86.414742
1449.000000, 86.486214
1450.000000, 86.603661
1451.000000, 86.525955
1452.000000, 86.587990
1453.000000, 86.610451
1454.000000, 86.629471
1455.000000, 86.642075
1456.000000, 86.748627
1457.000000, 86.769623
1458.000000, 86.812057
1459.000000, 86.784538
1460.000000, 86.900749
1461.000000, 86.833885
1462.000000, 86.885117
1463.000000, 86.960777
1464.000000, 87.090614
1465.000000, 87.001923
1466.000000, 87.084541
1467.000000, 87.229172
1468.000000, 87.177635
1469.000000, 87.168747
1470.000000, 87.250847
1471.000000, 87.241867
1472.000000, 87.391609
1473.000000, 87.351944
1474.000000, 87.378502
1475.000000, 87.520149
1476.000000, 87.554817
1477.000000, 87.611786
1478.000000, 87.628754
1479.000000, 87.584129
1480.000000, 87.645302
1481.000000, 87.611740
1482.000000, 87.773849
1483.000000, 87.757385
1484.000000, 87.828049
1485.000000, 87.850983
1486.000000, 87.759308
1487.000000, 87.892143
1488.000000, 87.828911
1489.000000, 87.900574
1490.000000, 87.945297
1491.000000, 87.817795
1492.000000, 88.046120
1493.000000, 87.957275
1494.000000, 87.998833
1495.000000, 88.079559
1496.000000, 88.004402
1497.000000, 87.987419
1498.000000, 87.959381
1499.000000, 88.075272
1500.000000, 87.970367
1501.000000, 88.017807
1502.000000, 88.018692
1503.000000, 88.066727
1504.000000, 87.921349
1505.000000, 87.964890
1506.000000, 87.951691
1507.000000, 87.913757
1508.000000, 87.819252
1509.000000, 87.884155
1510.000000, 87.822891
1511.000000, 87.812691
1512.000000, 87.807266
1513.000000, 87.832718
1514.000000, 87.743866
1515.000000, 87.688133
1516.000000, 87.766357
1517.000000, 87.659271
1518.000000, 87.575272
1519.000000, 87.612701
1520.000000, 87.515190
1521.000000, 87.537476
1522.000000, 87.436867
1523.000000, 87.358574
1524.000000, 87.384850
1525.000000, 87.376411
1526.000000, 87.267891
1527.000000, 87.211205
1528.000000, 87.238899
1529.000000, 87.277252
1530.000000, 87.201813
1531.000000, 87.125748
1532.000000, 87.093231
1533.000000, 87.102676
1534.000000, 87.165840
1535.000000, 87.072105
1536.000000, 86.971664
1537.000000, 86.975235
1538.000000, 86.958374
1539.000000, 86.977875
1540.000000, 87.026566
1541.000000, 86.976662
1542.000000, 87.000885
1543.000000, 86.960373
1544.000000, 87.103546
1545.000000, 87.011909
1546.000000, 87.141037
1547.000000, 87.199814
1548.000000, 87.149246
1549.000000, 87.171661
1550.000000, 87.275406
1551.000000, 87.310303
1552.000000, 87.402855
1553.000000, 87.410103
1554.000000, 87.366829
1555.000000, 87.464493
1556.000000, 87.495247
1557.000000, 87.518402
1558.000000, 87.549004
1559.000000, 87.521851
1560.000000, 87.645012
1561.000000, 87.704018
1562.000000, 87.729256
1563.000000, 87.757263
1564.000000, 87.721916
1565.000000, 87.870750
1566.000000, 87.895226
1567.000000, 87.921165
1568.000000, 87.949432
1569.000000, 87.934845
1570.000000, 88.145004
1571.000000, 88.155289
1572.000000, 87.996147
1573.000000, 88.156715
1574.000000, 88.303886
1575.000000, 88.270340
1576.000000, 88.187592
1577.000000, 88.292503
1578.000000, 88.247192
1579.000000, 88.345352
1580.000000, 88.394699
1581.000000, 88.452423
1582.000000, 88.406281
1583.000000, 88.402328
1584.000000, 88.433052
1585.000000, 88.507286
1586.000000, 88.403244
1587.000000, 88.484840
1588.000000, 88.520706
1589.000000, 88.580612
1590.000000, 88.601021
1591.000000, 88.722473
1592.000000, 88.592224
1593.000000, 88.653854
1594.000000, 88.739311
1595.000000, 88.677818
1596.000000, 88.600510
1597.000000, 88.699387
1598.000000, 88.633034
1599.000000, 88.701546
1600.000000, 88.636314
1601.000000, 88.679924
1602.000000, 88.824760
1603.000000, 88.611549
1604.000000, 88.659401
1605.000000, 88.556587
1606.000000, 88.534492
1607.000000, 88.612923
1608.000000, 88.630547
1609.000000, 88.647934
1610.000000, 88.532417
1611.000000, 88.496941
1612.000000, 88.492378
1613.000000, 88.440147
1614.000000, 88.410805
1615.000000, 88.308266
1616.000000, 88.230255
1617.000000, 88.219711
1618.000000, 88.175728
1619.000000, 88.251335
1620.000000, 88.229141
1621.000000, 88.147392
1622.000000, 87.962227
1623.000000, 88.035210
1624.000000, 88.162994
1625.000000, 87.952675
1626.000000, 87.890244
1627.000000, 87.956436
1628.000000, 87.776062
1629.000000, 87.847672
1630.000000, 87.675201
1631.000000, 87.815887
1632.000000, 87.459038
1633.000000, 87.505844
1634.000000, 87.494621
1635.000000, 87.438354
1636.000000, 87.407806
1637.000000, 87.338608
1638.000000, 87.305298
1639.000000, 87.283508
1640.000000, 87.214104
1641.000000, 87.076645
1642.000000, 87.059853
1643.000000, 86.881081
1644.000000, 86.818771
1645.000000, 86.670158
1646.000000, 86.657356
1647.000000, 86.486038
1648.000000, 86.480644
1649.000000, 86.489578
1650.000000, 86.365303
1651.000000, 86.401108
1652.000000, 86.387100
1653.000000, 86.310852
1654.000000, 86.261559
1655.000000, 86.211548
1656.000000, 86.124710
1657.000000, 85.937752
1658.000000, 85.831467
1659.000000, 85.697792
1660.000000, 85.543266
1661.000000, 85.335403
1662.000000, 85.054550
1663.000000, 84.815392
1664.000000, 84.558525
1665.000000, 84.167122
1666.000000, 83.867966
1667.000000, 83.650887
1668.000000, 83.401611
1669.000000, 83.381699
1670.000000, 83.449829
1671.000000, 83.280006
1672.000000, 83.417595
1673.000000, 83.639275
1674.000000, 83.789772
1675.000000, 83.933693
1676.000000, 84.133598
1677.000000, 84.212914
1678.000000, 84.408257
1679.000000, 84.392448
1680.000000, 84.491386
1681.000000, 84.486069
1682.000000, 84.401413
1683.000000, 84.246292
1684.000000, 84.079315
1685.000000, 83.988922
1686.000000, 83.786705
1687.000000, 83.673927
1688.000000, 83.648041
1689.000000, 83.625648
1690.000000, 83.629791
1691.000000, 83.628860
1692.000000, 83.594803
1693.000000, 83.774666
1694.000000, 83.720329
1695.000000, 83.710960
1696.000000, 83.700768
1697.000000, 83.579948
1698.000000, 83.361198
1699.000000, 83.320610
1700.000000, 83.423012
1701.000000, 83.429558
1702.000000, 83.572464
1703.000000, 83.585564
1704.000000, 83.743629
1705.000000, 83.893417
1706.000000, 84.047066
1707.000000, 84.080139
1708.000000, 84.218216
1709.000000, 84.191307
1710.000000, 84.259125
1711.000000, 84.361038
1712.000000, 84.313896
1713.000000, 84.491188
1714.000000, 84.401665
1715.000000, 84.402885
1716.000000, 84.324722
1717.000000, 84.320061
1718.000000, 84.246620
1719.000000, 84.232674
1720.000000, 84.133858
1721.000000, 84.188461
1722.000000, 84.142654
1723.000000, 84.172836
1724.000000, 84.291801
1725.000000, 84.078827
1726.000000, 84.227196
1727.000000, 84.179222
1728.000000, 84.231705
1729.000000, 84.219238
1730.000000, 84.167137
1731.000000, 84.210930
1732.000000, 84.067886
1733.000000, 84.122749
1734.000000, 84.059227
1735.000000, 84.000824
1736.000000, 84.050705
1737.000000, 84.056557
1738.000000, 84.015747
1739.000000, 84.088020
1740.000000, 84.094116
1741.000000, 84.081223
1742.000000, 84.244797
1743.000000, 84.312210
1744.000000, 84.304024
1745.000000, 84.419495
1746.000000, 84.577942
1747.000000, 84.438156
1748.000000, 84.600304
1749.000000, 84.726509
1750.000000, 84.664963
1751.000000, 84.598198
1752.000000, 84.702591
1753.000000, 84.679710
1754.000000, 84.662918
1755.000000, 84.675751
1756.000000, 84.730736
1757.000000, 84.594643
1758.000000, 84.612015
1759.000000, 84.496223
1760.000000, 84.409981
1761.000000, 84.491173
1762.000000, 84.491058
1763.000000, 84.406265
1764.000000, 84.369484
1765.000000, 84.267082
1766.000000, 84.295258
1767.000000, 84.236259
1768.000000, 84.149208
1769.000000, 84.214493
1770.000000, 84.121635
1771.000000, 84.104813
1772.000000, 84.158508
1773.000000, 84.181229
1774.000000, 84.149544
1775.000000, 84.201935
1776.000000, 84.280251
1777.000000, 84.220345
1778.000000, 84.176949
1779.000000, 84.339439
1780.000000, 84.326347
1781.000000, 84.352020
1782.000000, 84.369537
1783.000000, 84.479202
1784.000000, 84.382141
1785.000000, 84.315666
1786.000000, 84.448097
1787.000000, 84.320343
1788.000000, 84.449661
1789.000000, 84.539558
1790.000000, 84.383881
1791.000000, 84.374535
1792.000000, 84.380493
1793.000000, 84.467712
1794.000000, 84.468666
1795.000000, 84.412888
1796.000000, 84.546440
1797.000000, 84.485374
1798.000000, 84.404037
1799.000000, 84.482460
1800.000000, 84.460052
1801.000000, 84.471214
1802.000000, 84.513184
1803.000000, 84.556801
1804.000000, 84.567055
1805.000000, 84.519203
1806.000000, 84.444534
1807.000000, 84.554688
1808.000000, 84.698532
1809.000000, 84.657944
1810.000000, 84.595093
1811.000000, 84.657547
1812.000000, 84.598564
1813.000000, 84.686043
1814.000000, 84.781815
1815.000000, 84.686401
1816.000000, 84.768639
1817.000000, 84.724625
1818.000000, 84.740883
1819.000000, 84.856354
1820.000000, 84.868629
1821.000000, 84.933884
1822.000000, 84.867203
1823.000000, 84.946793
1824.000000, 84.952881
1825.000000, 85.006592
1826.000000, 85.019012
1827.000000, 84.985512
1828.000000, 85.119263
1829.000000, 85.108841
1830.000000, 85.177521
1831.000000, 85.128952
1832.000000, 85.211761
1833.000000, 85.315994
1834.000000, 85.281982
1835.000000, 85.333389
1836.000000, 85.410667
1837.000000, 85.537964
1838.000000, 85.445801
1839.000000, 85.503510
1840.000000, 85.565880
1841.000000, 85.657898
1842.000000, 85.595840
1843.000000, 85.637589
1844.000000, 85.718628
1845.000000, 85.822655
1846.000000, 85.797501
1847.000000, 85.793182
1848.000000, 85.942596
1849.000000, 85.947762
1850.000000, 85.955154
1851.000000, 85.920891
1852.000000, 85.924728
1853.000000, 86.112785
1854.000000, 86.070328
1855.000000, 86.089416
1856.000000, 86.076187
1857.000000, 86.243507
1858.000000, 86.153069
1859.000000, 86.271889
1860.000000, 86.302467
1861.000000, 86.343246
1862.000000, 86.253769
1863.000000, 86.382614
1864.000000, 86.237053
1865.000000, 86.341438
1866.000000, 86.360893
1867.000000, 86.305939
1868.000000, 86.349541
1869.000000, 86.194702
1870.000000, 86.400345
1871.000000, 86.395622
1872.000000, 86.419289
1873.000000, 86.486694
1874.000000, 86.395660
1875.000000, 86.380997
1876.000000, 86.479927
1877.000000, 86.349434
1878.000000, 86.432045
1879.000000, 86.423126
1880.000000, 86.354485
1881.000000, 86.387184
1882.000000, 86.306305
1883.000000, 86.300316
1884.000000, 86.281616
1885.000000, 86.342133
1886.000000, 86.142990
1887.000000, 86.134369
1888.000000, 86.192238
1889.000000, 86.208031
1890.000000, 86.107788
1891.000000, 86.083672
1892.000000, 86.102692
1893.000000, 86.009544
1894.000000, 85.914673
1895.000000, 85.941711
1896.000000, 85.788162
1897.000000, 85.741409
1898.000000, 85.731415
1899.000000, 85.643402
1900.000000, 85.637688
1901.000000, 85.597282
1902.000000, 85.563622
1903.000000, 85.454697
1904.000000, 85.437462
1905.000000, 85.455307
1906.000000, 85.394806
1907.000000, 85.356827
1908.000000, 85.354073
1909.000000, 85.237030
1910.000000, 85.189446
1911.000000, 85.126434
1912.000000, 85.161949
1913.000000, 85.049072
1914.000000, 85.112823
1915.000000, 85.058235
1916.000000, 84.951546
1917.000000, 84.915260
1918.000000, 84.912392
1919.000000, 84.957001
1920.000000, 84.785667
1921.000000, 84.721054
1922.000000, 84.774445
1923.000000, 84.631775
1924.000000, 84.746964
1925.000000, 84.586922
1926.000000, 84.522797
1927.000000, 84.513626
1928.000000, 84.487518
1929.000000, 84.472816
1930.000000, 84.370041
1931.000000, 84.350151
1932.000000, 84.406654
1933.000000, 84.401360
1934.000000, 84.263542
1935.000000, 84.344101
1936.000000, 84.218430
1937.000000, 84.275841
1938.000000, 84.131660
1939.000000, 84.129425
1940.000000, 84.143356
1941.000000, 84.097931
1942.000000, 84.176682
1943.000000, 83.986946
1944.000000, 84.047028
1945.000000, 84.010307
1946.000000, 84.044548
1947.000000, 83.982613
1948.000000, 83.877892
1949.000000, 84.073753
1950.000000, 83.949417
1951.000000, 83.902000
1952.000000, 83.939095
1953.000000, 83.947784
1954.000000, 84.002083
1955.000000, 83.880875
1956.000000, 83.856346
1957.000000, 83.934692
1958.000000, 83.959335
1959.000000, 83.898849
1960.000000, 83.792786
1961.000000, 83.840355
1962.000000, 83.830276
1963.000000, 83.866325
1964.000000, 83.781807
1965.000000, 83.708397
1966.000000, 83.785820
1967.000000, 83.769150
1968.000000, 83.729263
1969.000000, 83.619965
1970.000000, 83.706734
1971.000000, 83.747963
1972.000000, 83.776001
1973.000000, 83.710114
1974.000000, 83.808983
1975.000000, 83.766624
1976.000000, 83.744957
1977.000000, 83.639572
1978.000000, 83.795486
1979.000000, 83.800903
1980.000000, 83.791229
1981.000000, 83.881416
1982.000000, 83.731010
1983.000000, 83.776474
1984.000000, 83.830917
1985.000000, 83.817764
1986.000000, 83.811920
1987.000000, 83.846207
1988.000000, 83.762146
1989.000000, 83.755753
1990.000000, 83.778755
1991.000000, 83.798553
1992.000000, 83.713524
1993.000000, 83.766869
1994.000000, 83.784302
1995.000000, 83.730766
1996.000000, 83.695480
1997.000000, 83.783463
1998.000000, 83.804146
1999.000000, 83.800484
2000.000000, 83.715126
2001.000000, 83.622833
2002.000000, 83.549377
2003.000000, 83.517769
2004.000000, 83.637428
2005.000000, 83.565094
2006.000000, 83.500793
2007.000000, 83.607903
2008.000000, 83.436546
2009.000000, 83.504562
2010.000000, 83.495674
2011.000000, 83.423065
2012.000000, 83.427971
2013.000000, 83.435104
2014.000000, 83.453926
2015.000000, 83.353577
2016.000000, 83.388390
2017.000000, 83.269493
2018.000000, 83.304962
2019.000000, 83.267807
2020.000000, 83.259872
2021.000000, 83.253784
2022.000000, 83.226883
2023.000000, 83.020500
2024.000000, 83.104668
2025.000000, 83.108696
2026.000000, 83.110764
2027.000000, 83.014496
2028.000000, 82.959610
2029.000000, 82.993942
2030.000000, 82.896004
2031.000000, 82.848923
2032.000000, 82.708588
2033.000000, 82.785568
2034.000000, 82.626190
2035.000000, 82.709831
2036.000000, 82.601517
2037.000000, 82.474716
2038.000000, 82.449760
2039.000000, 82.397644
2040.000000, 82.264511
2041.000000, 82.330498
2042.000000, 82.263733
2043.000000, 82.155548
2044.000000, 82.102310
2045.000000, 82.070122
2046.000000, 82.023178
2047.000000, 82.112694
2048.000000, 81.924805
2049.000000, 81.831459
2050.000000, 81.755081
2051.000000, 81.754097
2052.000000, 81.709740
2053.000000, 81.625526
2054.000000, 81.609291
2055.000000, 81.484314
2056.000000, 81.556549
2057.000000, 81.433365
2058.000000, 81.385719
2059.000000, 81.273575
2060.000000, 81.273285
2061.000000, 81.044807
2062.000000, 81.045174
2063.000000, 80.890884
2064.000000, 80.919556
2065.000000, 80.867073
2066.000000, 80.776360
2067.000000, 80.721451
2068.000000, 80.623276
2069.000000, 80.452583
2070.000000, 80.369370
2071.000000, 80.408119
2072.000000, 80.301025
2073.000000, 80.249496
2074.000000, 80.086525
2075.000000, 80.099098
2076.000000, 79.989075
2077.000000, 79.939613
2078.000000, 79.834732
2079.000000, 79.733505
2080.000000, 79.711060
2081.000000, 79.621162
2082.000000, 79.648170
2083.000000, 79.503708
2084.000000, 79.518555
2085.000000, 79.349281
2086.000000, 79.349213
2087.000000, 79.323723
2088.000000, 79.263359
2089.000000, 79.280289
2090.000000, 79.158470
2091.000000, 79.141602
2092.000000, 79.067398
2093.000000, 79.126831
2094.000000, 79.015991
2095.000000, 79.072670
2096.000000, 78.866264
2097.000000, 78.942902
2098.000000, 78.889259
2099.000000, 78.797554
2100.000000, 78.828690
2101.000000, 78.777573
2102.000000, 78.759476
2103.000000, 78.750648
2104.000000, 78.663155
2105.000000, 78.621140
2106.000000, 78.511978
2107.000000, 78.497040
2108.000000, 78.530121
2109.000000, 78.444450
2110.000000, 78.436737
2111.000000, 78.289978
2112.000000, 78.260979
2113.000000, 78.206894
2114.000000, 78.136276
2115.000000, 78.057457
2116.000000, 78.073906
2117.000000, 77.932632
2118.000000, 77.820572
2119.000000, 77.705986
2120.000000, 77.747093
2121.000000, 77.583061
2122.000000, 77.532860
2123.000000, 77.435104
2124.000000, 77.304634
2125.000000, 77.231964
2126.000000, 77.035202
2127.000000, 76.757919
2128.000000, 76.605560
2129.000000, 76.304558
2130.000000, 75.946762
2131.000000, 75.546356
2132.000000, 75.388763
2133.000000, 75.024323
2134.000000, 74.826485
2135.000000, 74.583580
2136.000000, 74.637794
2137.000000, 74.542442
2138.000000, 74.639603
2139.000000, 74.831123
2140.000000, 74.892387
2141.000000, 75.188049
2142.000000, 75.288322
2143.000000, 75.526184
2144.000000, 75.617416
2145.000000, 75.802544
2146.000000, 75.819275
2147.000000, 75.991531
2148.000000, 75.928917
2149.000000, 75.886459
2150.000000, 75.776604
2151.000000, 75.592766
2152.000000, 75.483826
2153.000000, 75.188507
2154.000000, 74.906715
2155.000000, 74.549042
2156.000000, 74.326469
2157.000000, 73.998283
2158.000000, 73.642723
2159.000000, 73.323105
2160.000000, 73.091858
2161.000000, 72.791443
2162.000000, 72.710892
2163.000000, 72.713448
2164.000000, 72.848854
2165.000000, 72.885384
2166.000000, 73.150948
2167.000000, 73.527565
2168.000000, 73.841537
2169.000000, 74.265419
2170.000000, 74.648300
2171.000000, 75.076553
2172.000000, 75.323608
2173.000000, 75.599480
2174.000000, 75.811905
2175.000000, 75.874832
2176.000000, 76.051758
2177.000000, 76.182205
2178.000000, 76.082840
2179.000000, 76.154366
2180.000000, 76.153442
2181.000000, 76.024643
2182.000000, 76.065636
2183.000000, 75.977242
2184.000000, 75.881615
2185.000000, 75.713760
2186.000000, 75.668083
2187.000000, 75.537476
2188.000000, 75.530441
2189.000000, 75.528458
2190.000000, 75.528580
2191.000000, 75.463493
2192.000000, 75.442657
2193.000000, 75.382477
2194.000000, 75.389961
2195.000000, 75.475632
2196.000000, 75.512169
2197.000000, 75.462944
2198.000000, 75.430260
2199.000000, 75.397141
2200.000000, 75.316238
2201.000000, 75.274773
2202.000000, 75.261810
2203.000000, 75.109680
2204.000000, 75.053825
2205.000000, 74.855980
2206.000000, 74.953293
2207.000000, 74.894600
2208.000000, 74.922821
2209.000000, 74.813042
2210.000000, 74.883636
2211.000000, 74.920853
2212.000000, 74.848167
2213.000000, 75.085922
2214.000000, 75.024811
2215.000000, 75.141563
2216.000000, 75.163406
2217.000000, 75.201782
2218.000000, 75.220131
2219.000000, 75.343803
2220.000000, 75.233505
2221.000000, 75.367859
2222.000000, 75.371460
2223.000000, 75.201462
2224.000000, 75.140717
2225.000000, 75.139595
2226.000000, 75.027214
2227.000000, 74.900558
2228.000000, 74.791130
2229.000000, 74.674431
2230.000000, 74.562454
2231.000000, 74.569695
2232.000000, 74.481918
2233.000000, 74.347389
2234.000000, 74.221458
2235.000000, 74.162689
2236.000000, 74.144363
2237.000000, 74.042847
2238.000000, 73.872307
2239.000000, 73.866081
2240.000000, 73.826447
2241.000000, 73.596298
2242.000000, 73.471268
2243.000000, 73.420540
2244.000000, 73.183037
2245.000000, 72.951790
2246.000000, 72.699387
2247.000000, 72.439323
2248.000000, 72.322968
2249.000000, 71.965828
2250.000000, 71.753822
2251.000000, 71.388161
2252.000000, 70.980560
2253.000000, 70.634911
2254.000000, 70.169693
2255.000000, 69.894089
2256.000000, 69.458321
2257.000000, 69.006958
2258.000000, 68.542084
2259.000000, 68.122444
2260.000000, 67.642090
2261.000000, 67.187935
2262.000000, 66.716072
2263.000000, 66.242722
2264.000000, 65.747574
2265.000000, 65.223930
2266.000000, 64.757629
2267.000000, 64.281586
2268.000000, 63.790695
2269.000000, 63.283134
2270.000000, 62.825192
2271.000000, 62.427364
2272.000000, 62.110340
2273.000000, 61.663383
2274.000000, 61.539101
2275.000000, 61.362110
2276.000000, 61.164753
2277.000000, 61.025925
2278.000000, 60.868847
2279.000000, 60.828148
2280.000000, 60.659019
2281.000000, 60.471386
2282.000000, 60.329426
2283.000000, 60.213207
2284.000000, 60.003536
2285.000000, 59.751160
2286.000000, 59.588272
2287.000000, 59.262997
2288.000000, 59.091496
2289.000000, 58.913647
2290.000000, 58.654469
2291.000000, 58.473606
2292.000000, 58.316528
2293.000000, 58.077751
2294.000000, 57.843548
2295.000000, 57.626289
2296.000000, 57.414551
2297.000000, 57.252247
2298.000000, 57.103718
2299.000000, 56.925236
2300.000000, 56.833031
2301.000000, 56.657505
2302.000000, 56.579094
2303.000000, 56.536781
2304.000000, 56.483521
2305.000000, 56.419807
2306.000000, 56.293942
2307.000000, 56.277882
2308.000000, 56.131218
2309.000000, 55.960381
2310.000000, 55.833687
2311.000000, 55.675964
2312.000000, 55.605419
2313.000000, 55.647606
2314.000000, 55.586452
2315.000000, 55.633366
2316.000000, 55.847931
2317.000000, 55.992489
2318.000000, 56.227577
2319.000000, 56.614555
2320.000000, 57.036434
2321.000000, 57.506306
2322.000000, 57.892715
2323.000000, 58.205910
2324.000000, 58.653271
2325.000000, 58.908821
2326.000000, 59.272606
2327.000000, 59.518284
2328.000000, 59.872837
2329.000000, 60.073864
2330.000000, 60.256523
2331.000000, 60.601013
2332.000000, 60.726784
2333.000000, 60.894989
2334.000000, 61.135548
2335.000000, 61.239548
2336.000000, 61.349442
2337.000000, 61.471081
2338.000000, 61.529266
2339.000000, 61.662769
2340.000000, 61.713093
2341.000000, 61.721767
2342.000000, 61.663437
2343.000000, 61.723625
2344.000000, 61.609489
2345.000000, 61.596943
2346.000000, 61.534264
2347.000000, 61.449356
2348.000000, 61.371887
2349.000000, 61.397511
2350.000000, 61.349262
2351.000000, 61.385433
2352.000000, 61.428089
2353.000000, 61.405148
2354.000000, 61.471039
2355.000000, 61.520664
2356.000000, 61.499222
2357.000000, 61.481403
2358.000000, 61.444420
2359.000000, 61.394455
2360.000000, 61.353695
2361.000000, 61.354500
2362.000000, 61.243523
2363.000000, 61.129517
2364.000000, 61.167908
2365.000000, 61.075729
2366.000000, 61.135761
2367.000000, 61.086487
2368.000000, 61.149250
2369.000000, 61.177189
2370.000000, 61.190296
2371.000000, 61.214340
2372.000000, 61.202263
2373.000000, 61.273895
2374.000000, 61.236549
2375.000000, 61.326050
2376.000000, 61.380966
2377.000000, 61.298382
2378.000000, 61.331928
2379.000000, 61.301868
2380.000000, 61.258118
2381.000000, 61.242283
2382.000000, 61.187935
2383.000000, 61.105175
2384.000000, 61.050255
2385.000000, 60.934948
2386.000000, 60.776363
2387.000000, 60.748871
2388.000000, 60.678089
2389.000000, 60.567009
2390.000000, 60.459930
2391.000000, 60.424591
2392.000000, 60.288208
2393.000000, 60.184288
2394.000000, 60.158039
2395.000000, 60.001492
2396.000000, 59.935085
2397.000000, 59.884674
2398.000000, 59.664909
2399.000000, 59.665680
2400.000000, 59.618038
2401.000000, 59.518475
2402.000000, 59.516800
2403.000000, 59.655403
2404.000000, 59.641670
2405.000000, 59.759163
2406.000000, 59.944702
2407.000000, 60.088123
2408.000000, 60.199196
2409.000000, 60.398930
2410.000000, 60.538910
2411.000000, 60.675282
2412.000000, 60.960979
2413.000000, 61.042110
2414.000000, 61.068924
2415.000000, 61.257111
2416.000000, 61.378437
2417.000000, 61.406612
2418.000000, 61.445850
2419.000000, 61.517788
2420.000000, 61.507599
2421.000000, 61.512459
2422.000000, 61.569683
2423.000000, 61.598789
2424.000000, 61.564056
2425.000000, 61.521404
2426.000000, 61.471931
2427.000000, 61.470402
2428.000000, 61.466206
2429.000000, 61.406933
2430.000000, 61.252911
2431.000000, 61.300583
2432.000000, 61.105419
2433.000000, 60.957916
2434.000000, 60.890537
2435.000000, 60.701912
2436.000000, 60.469597
2437.000000, 60.286575
2438.000000, 60.109318
2439.000000, 59.821194
2440.000000, 59.498287
2441.000000, 59.277130
2442.000000, 58.775139
2443.000000, 58.396954
2444.000000, 57.997070
2445.000000, 57.593964
2446.000000, 57.041370
2447.000000, 56.707966
2448.000000, 56.172157
2449.000000, 55.759766
2450.000000, 55.302067
2451.000000, 54.856205
2452.000000, 54.447701
2453.000000, 54.011829
2454.000000, 53.649651
2455.000000, 53.269505
2456.000000, 52.868820
2457.000000, 52.535213
2458.000000, 52.187580
2459.000000, 51.890301
2460.000000, 51.803017
2461.000000, 51.645714
2462.000000, 51.691257
2463.000000, 51.755569
2464.000000, 51.906002
2465.000000, 52.178619
2466.000000, 52.524914
2467.000000, 52.839668
2468.000000, 53.166443
2469.000000, 53.655190
2470.000000, 54.042416
2471.000000, 54.387421
2472.000000, 54.768932
2473.000000, 55.097382
2474.000000, 55.422413
2475.000000, 55.774940
2476.000000, 56.027496
2477.000000, 56.266666
2478.000000, 56.486862
2479.000000, 56.714188
2480.000000, 56.834965
2481.000000, 56.879051
2482.000000, 57.013863
2483.000000, 57.074970
2484.000000, 57.044720
2485.000000, 57.009460
2486.000000, 57.012249
2487.000000, 56.905930
2488.000000, 56.895828
2489.000000, 56.779671
2490.000000, 56.731194
2491.000000, 56.766544
2492.000000, 56.738533
2493.000000, 56.607674
2494.000000, 56.529121
2495.000000, 56.517635
2496.000000, 56.422668
2497.000000, 56.327068
2498.000000, 56.257755
2499.000000, 56.304092
2500.000000, 56.124718
2501.000000, 56.033516
2502.000000, 55.979450
2503.000000, 55.832066
2504.000000, 55.713905
2505.000000, 55.761909
2506.000000, 55.613934
2507.000000, 55.452377
2508.000000, 55.512707
2509.000000, 55.446495
2510.000000, 55.339275
2511.000000, 55.433933
2512.000000, 55.460365
2513.000000, 55.437332
2514.000000, 55.507916
2515.000000, 55.594360
2516.000000, 55.672878
2517.000000, 55.829899
2518.000000, 55.986923
2519.000000, 56.135445
2520.000000, 56.258522
2521.000000, 56.390202
2522.000000, 56.567848
2523.000000, 56.738674
2524.000000, 56.959152
2525.000000, 57.068623
2526.000000, 57.305611
2527.000000, 57.466209
2528.000000, 57.628120
2529.000000, 57.755619
2530.000000, 57.972080
2531.000000, 58.099670
2532.000000, 58.414841
2533.000000, 58.423359
2534.000000, 58.543976
2535.000000, 58.641617
2536.000000, 58.842407
2537.000000, 58.806992
2538.000000, 58.982761
2539.000000, 59.034775
2540.000000, 59.099876
2541.000000, 59.087555
2542.000000, 59.206879
2543.000000, 59.115440
2544.000000, 59.187263
2545.000000, 59.208614
2546.000000, 59.278656
2547.000000, 59.252010
2548.000000, 59.243931
2549.000000, 59.207081
2550.000000, 59.137230
2551.000000, 59.135391
2552.000000, 59.079914
2553.000000, 59.097500
2554.000000, 59.100979
2555.000000, 59.118168
2556.000000, 59.158653
2557.000000, 59.173248
2558.000000, 59.213562
2559.000000, 59.272259
2560.000000, 59.188110
2561.000000, 59.239777
2562.000000, 59.405403
2563.000000, 59.282623
2564.000000, 59.365868
2565.000000, 59.374683
2566.000000, 59.455345
2567.000000, 59.491772
2568.000000, 59.587624
2569.000000, 59.549671
2570.000000, 59.630306
2571.000000, 59.633942
2572.000000, 59.658318
2573.000000, 59.683628
2574.000000, 59.651329
2575.000000, 59.688015
2576.000000, 59.753132
2577.000000, 59.748680
2578.000000, 59.728855
2579.000000, 59.830986
2580.000000, 59.974701
2581.000000, 59.979885
2582.000000, 60.147770
2583.000000, 60.309101
2584.000000, 60.414249
2585.000000, 60.465504
2586.000000, 60.716110
2587.000000, 60.878551
2588.000000, 61.009377
2589.000000, 61.150097
2590.000000, 61.298328
2591.000000, 61.416946
2592.000000, 61.530640
2593.000000, 61.717331
2594.000000, 61.745327
2595.000000, 61.909164
2596.000000, 62.002979
2597.000000, 62.071522
2598.000000, 62.156086
2599.000000, 62.292637
2600.000000, 62.321426
